time,.header.seq,.header.stamp.secs,.header.stamp.nsecs,.header.frame_id,.orientation.x,.orientation.y,.orientation.z,.orientation.w,.orientation_covariance,.angular_velocity.x,.angular_velocity.y,.angular_velocity.z,.angular_velocity_covariance,.linear_acceleration.x,.linear_acceleration.y,.linear_acceleration.z,.linear_acceleration_covariance
2025/07/05/17:44:13.305107,7261,1751712253,279543352,base_link,0.0,0.0,0.0,0.0,"(-1.0, 0.0, 0.0, 0.0, 0.0, 0.0, 0.0, 0.0, 0.0)",0.064,0.0010000000000000074,0.061,"(1.2184696791468346e-07, 0.0, 0.0, 0.0, 1.2184696791468346e-07, 0.0, 0.0, 0.0, 1.2184696791468346e-07)",-1.3925443,0.1961330000000012,9.6889702,"(8.999999999999999e-08, 0.0, 0.0, 0.0, 8.999999999999999e-08, 0.0, 0.0, 0.0, 8.999999999999999e-08)"
2025/07/05/17:44:13.404428,7262,1751712253,401044544,base_link,0.0,0.0,0.0,0.0,"(-1.0, 0.0, 0.0, 0.0, 0.0, 0.0, 0.0, 0.0, 0.0)",0.024,0.008000000000000005,0.041,"(1.2184696791468346e-07, 0.0, 0.0, 0.0, 1.2184696791468346e-07, 0.0, 0.0, 0.0, 1.2184696791468346e-07)",-1.38273765,0.43149260000000117,9.6693569,"(8.999999999999999e-08, 0.0, 0.0, 0.0, 8.999999999999999e-08, 0.0, 0.0, 0.0, 8.999999999999999e-08)"
2025/07/05/17:44:13.582586,7263,1751712253,579137160,base_link,0.0,0.0,0.0,0.0,"(-1.0, 0.0, 0.0, 0.0, 0.0, 0.0, 0.0, 0.0, 0.0)",0.034,0.0029999999999999975,-0.023,"(1.2184696791468346e-07, 0.0, 0.0, 0.0, 1.2184696791468346e-07, 0.0, 0.0, 0.0, 1.2184696791468346e-07)",-1.40235095,0.25497290000000117,9.60071035,"(8.999999999999999e-08, 0.0, 0.0, 0.0, 8.999999999999999e-08, 0.0, 0.0, 0.0, 8.999999999999999e-08)"
2025/07/05/17:44:13.684260,7264,1751712253,679126888,base_link,0.0,0.0,0.0,0.0,"(-1.0, 0.0, 0.0, 0.0, 0.0, 0.0, 0.0, 0.0, 0.0)",-0.011,-0.011000000000000005,-0.036000000000000004,"(1.2184696791468346e-07, 0.0, 0.0, 0.0, 1.2184696791468346e-07, 0.0, 0.0, 0.0, 1.2184696791468346e-07)",-1.3533177,0.1961330000000012,9.6301303,"(8.999999999999999e-08, 0.0, 0.0, 0.0, 8.999999999999999e-08, 0.0, 0.0, 0.0, 8.999999999999999e-08)"
2025/07/05/17:44:13.782972,7265,1751712253,779454032,base_link,0.0,0.0,0.0,0.0,"(-1.0, 0.0, 0.0, 0.0, 0.0, 0.0, 0.0, 0.0, 0.0)",-0.032,-0.021000000000000008,-0.045,"(1.2184696791468346e-07, 0.0, 0.0, 0.0, 1.2184696791468346e-07, 0.0, 0.0, 0.0, 1.2184696791468346e-07)",-1.38273765,0.2157463000000012,9.6693569,"(8.999999999999999e-08, 0.0, 0.0, 0.0, 8.999999999999999e-08, 0.0, 0.0, 0.0, 8.999999999999999e-08)"
2025/07/05/17:44:13.882485,7266,1751712253,879093032,base_link,0.0,0.0,0.0,0.0,"(-1.0, 0.0, 0.0, 0.0, 0.0, 0.0, 0.0, 0.0, 0.0)",-0.01,-0.015000000000000006,-0.054,"(1.2184696791468346e-07, 0.0, 0.0, 0.0, 1.2184696791468346e-07, 0.0, 0.0, 0.0, 1.2184696791468346e-07)",-1.372931,0.1667130500000012,9.69877685,"(8.999999999999999e-08, 0.0, 0.0, 0.0, 8.999999999999999e-08, 0.0, 0.0, 0.0, 8.999999999999999e-08)"
2025/07/05/17:44:14.004136,7267,1751712254,650944,base_link,0.0,0.0,0.0,0.0,"(-1.0, 0.0, 0.0, 0.0, 0.0, 0.0, 0.0, 0.0, 0.0)",0.027,-7.347880794884118e-18,-0.06,"(1.2184696791468346e-07, 0.0, 0.0, 0.0, 1.2184696791468346e-07, 0.0, 0.0, 0.0, 1.2184696791468346e-07)",-1.3337044,0.1863263500000012,9.69877685,"(8.999999999999999e-08, 0.0, 0.0, 0.0, 8.999999999999999e-08, 0.0, 0.0, 0.0, 8.999999999999999e-08)"
2025/07/05/17:44:14.082342,7268,1751712254,79417576,base_link,0.0,0.0,0.0,0.0,"(-1.0, 0.0, 0.0, 0.0, 0.0, 0.0, 0.0, 0.0, 0.0)",0.043000000000000003,0.005999999999999992,-0.061,"(1.2184696791468346e-07, 0.0, 0.0, 0.0, 1.2184696791468346e-07, 0.0, 0.0, 0.0, 1.2184696791468346e-07)",-1.34351105,0.1569064000000012,9.65955025,"(8.999999999999999e-08, 0.0, 0.0, 0.0, 8.999999999999999e-08, 0.0, 0.0, 0.0, 8.999999999999999e-08)"
2025/07/05/17:44:14.182673,7269,1751712254,178971184,base_link,0.0,0.0,0.0,0.0,"(-1.0, 0.0, 0.0, 0.0, 0.0, 0.0, 0.0, 0.0, 0.0)",0.052000000000000005,-7.470345474798855e-18,-0.061,"(1.2184696791468346e-07, 0.0, 0.0, 0.0, 1.2184696791468346e-07, 0.0, 0.0, 0.0, 1.2184696791468346e-07)",-0.8825985000000001,0.2843928500000012,9.65955025,"(8.999999999999999e-08, 0.0, 0.0, 0.0, 8.999999999999999e-08, 0.0, 0.0, 0.0, 8.999999999999999e-08)"
2025/07/05/17:44:14.282638,7270,1751712254,279683864,base_link,0.0,0.0,0.0,0.0,"(-1.0, 0.0, 0.0, 0.0, 0.0, 0.0, 0.0, 0.0, 0.0)",0.097,-0.02100000000000001,-0.085,"(1.2184696791468346e-07, 0.0, 0.0, 0.0, 1.2184696791468346e-07, 0.0, 0.0, 0.0, 1.2184696791468346e-07)",-0.77472535,0.49033250000000117,9.73800345,"(8.999999999999999e-08, 0.0, 0.0, 0.0, 8.999999999999999e-08, 0.0, 0.0, 0.0, 8.999999999999999e-08)"
2025/07/05/17:44:14.427705,7271,1751712254,423070728,base_link,0.0,0.0,0.0,0.0,"(-1.0, 0.0, 0.0, 0.0, 0.0, 0.0, 0.0, 0.0, 0.0)",0.092,-0.012000000000000018,-0.148,"(1.2184696791468346e-07, 0.0, 0.0, 0.0, 1.2184696791468346e-07, 0.0, 0.0, 0.0, 1.2184696791468346e-07)",-1.4513842000000001,0.1765197000000012,9.67916355,"(8.999999999999999e-08, 0.0, 0.0, 0.0, 8.999999999999999e-08, 0.0, 0.0, 0.0, 8.999999999999999e-08)"
2025/07/05/17:44:14.582591,7272,1751712254,579180808,base_link,0.0,0.0,0.0,0.0,"(-1.0, 0.0, 0.0, 0.0, 0.0, 0.0, 0.0, 0.0, 0.0)",-0.10300000000000001,0.011999999999999983,-0.14200000000000002,"(1.2184696791468346e-07, 0.0, 0.0, 0.0, 1.2184696791468346e-07, 0.0, 0.0, 0.0, 1.2184696791468346e-07)",-1.5102241,0.11767980000000118,9.67916355,"(8.999999999999999e-08, 0.0, 0.0, 0.0, 8.999999999999999e-08, 0.0, 0.0, 0.0, 8.999999999999999e-08)"
2025/07/05/17:44:14.662814,7273,1751712254,659613696,base_link,0.0,0.0,0.0,0.0,"(-1.0, 0.0, 0.0, 0.0, 0.0, 0.0, 0.0, 0.0, 0.0)",-0.10400000000000001,0.012999999999999984,-0.135,"(1.2184696791468346e-07, 0.0, 0.0, 0.0, 1.2184696791468346e-07, 0.0, 0.0, 0.0, 1.2184696791468346e-07)",-1.4513842000000001,0.03922660000000119,9.65955025,"(8.999999999999999e-08, 0.0, 0.0, 0.0, 8.999999999999999e-08, 0.0, 0.0, 0.0, 8.999999999999999e-08)"
2025/07/05/17:44:14.763154,7274,1751712254,759180352,base_link,0.0,0.0,0.0,0.0,"(-1.0, 0.0, 0.0, 0.0, 0.0, 0.0, 0.0, 0.0, 0.0)",-0.033,0.004999999999999985,-0.12,"(1.2184696791468346e-07, 0.0, 0.0, 0.0, 1.2184696791468346e-07, 0.0, 0.0, 0.0, 1.2184696791468346e-07)",-1.4317709,-0.029419949999998817,9.65955025,"(8.999999999999999e-08, 0.0, 0.0, 0.0, 8.999999999999999e-08, 0.0, 0.0, 0.0, 8.999999999999999e-08)"
2025/07/05/17:44:14.842502,7275,1751712254,839637352,base_link,0.0,0.0,0.0,0.0,"(-1.0, 0.0, 0.0, 0.0, 0.0, 0.0, 0.0, 0.0, 0.0)",0.028,-0.0010000000000000122,-0.099,"(1.2184696791468346e-07, 0.0, 0.0, 0.0, 1.2184696791468346e-07, 0.0, 0.0, 0.0, 1.2184696791468346e-07)",-1.4317709,-0.049033249999998814,9.6693569,"(8.999999999999999e-08, 0.0, 0.0, 0.0, 8.999999999999999e-08, 0.0, 0.0, 0.0, 8.999999999999999e-08)"
2025/07/05/17:44:14.963452,7276,1751712254,959442152,base_link,0.0,0.0,0.0,0.0,"(-1.0, 0.0, 0.0, 0.0, 0.0, 0.0, 0.0, 0.0, 0.0)",0.096,-0.005000000000000009,-0.07200000000000001,"(1.2184696791468346e-07, 0.0, 0.0, 0.0, 1.2184696791468346e-07, 0.0, 0.0, 0.0, 1.2184696791468346e-07)",-1.4317709,0.03922660000000119,9.6497436,"(8.999999999999999e-08, 0.0, 0.0, 0.0, 8.999999999999999e-08, 0.0, 0.0, 0.0, 8.999999999999999e-08)"
2025/07/05/17:44:15.042742,7277,1751712255,39660152,base_link,0.0,0.0,0.0,0.0,"(-1.0, 0.0, 0.0, 0.0, 0.0, 0.0, 0.0, 0.0, 0.0)",0.113,-0.0030000000000000074,-0.06,"(1.2184696791468346e-07, 0.0, 0.0, 0.0, 1.2184696791468346e-07, 0.0, 0.0, 0.0, 1.2184696791468346e-07)",-1.4317709,0.08825985000000118,9.6497436,"(8.999999999999999e-08, 0.0, 0.0, 0.0, 8.999999999999999e-08, 0.0, 0.0, 0.0, 8.999999999999999e-08)"
2025/07/05/17:44:15.164084,7278,1751712255,159455184,base_link,0.0,0.0,0.0,0.0,"(-1.0, 0.0, 0.0, 0.0, 0.0, 0.0, 0.0, 0.0, 0.0)",0.08700000000000001,-0.0020000000000000065,-0.052000000000000005,"(1.2184696791468346e-07, 0.0, 0.0, 0.0, 1.2184696791468346e-07, 0.0, 0.0, 0.0, 1.2184696791468346e-07)",-1.44157755,0.1667130500000012,9.6301303,"(8.999999999999999e-08, 0.0, 0.0, 0.0, 8.999999999999999e-08, 0.0, 0.0, 0.0, 8.999999999999999e-08)"
2025/07/05/17:44:15.262393,7279,1751712255,259213328,base_link,0.0,0.0,0.0,0.0,"(-1.0, 0.0, 0.0, 0.0, 0.0, 0.0, 0.0, 0.0, 0.0)",0.037,-0.005000000000000006,-0.052000000000000005,"(1.2184696791468346e-07, 0.0, 0.0, 0.0, 1.2184696791468346e-07, 0.0, 0.0, 0.0, 1.2184696791468346e-07)",-1.4513842000000001,0.1961330000000012,9.62032365,"(8.999999999999999e-08, 0.0, 0.0, 0.0, 8.999999999999999e-08, 0.0, 0.0, 0.0, 8.999999999999999e-08)"
2025/07/05/17:44:15.362647,7280,1751712255,359251216,base_link,0.0,0.0,0.0,0.0,"(-1.0, 0.0, 0.0, 0.0, 0.0, 0.0, 0.0, 0.0, 0.0)",-0.009000000000000001,-0.009000000000000008,-0.057,"(1.2184696791468346e-07, 0.0, 0.0, 0.0, 1.2184696791468346e-07, 0.0, 0.0, 0.0, 1.2184696791468346e-07)",-1.4317709,0.2059396500000012,9.639936950000001,"(8.999999999999999e-08, 0.0, 0.0, 0.0, 8.999999999999999e-08, 0.0, 0.0, 0.0, 8.999999999999999e-08)"
2025/07/05/17:44:15.524086,7281,1751712255,520302200,base_link,0.0,0.0,0.0,0.0,"(-1.0, 0.0, 0.0, 0.0, 0.0, 0.0, 0.0, 0.0, 0.0)",-0.025,-0.01300000000000001,-0.066,"(1.2184696791468346e-07, 0.0, 0.0, 0.0, 1.2184696791468346e-07, 0.0, 0.0, 0.0, 1.2184696791468346e-07)",-1.44157755,0.1470997500000012,9.65955025,"(8.999999999999999e-08, 0.0, 0.0, 0.0, 8.999999999999999e-08, 0.0, 0.0, 0.0, 8.999999999999999e-08)"
2025/07/05/17:44:15.605962,7282,1751712255,601310320,base_link,0.0,0.0,0.0,0.0,"(-1.0, 0.0, 0.0, 0.0, 0.0, 0.0, 0.0, 0.0, 0.0)",-0.015,-0.011000000000000008,-0.066,"(1.2184696791468346e-07, 0.0, 0.0, 0.0, 1.2184696791468346e-07, 0.0, 0.0, 0.0, 1.2184696791468346e-07)",-1.4317709,0.11767980000000118,9.6889702,"(8.999999999999999e-08, 0.0, 0.0, 0.0, 8.999999999999999e-08, 0.0, 0.0, 0.0, 8.999999999999999e-08)"
2025/07/05/17:44:15.682990,7283,1751712255,679857768,base_link,0.0,0.0,0.0,0.0,"(-1.0, 0.0, 0.0, 0.0, 0.0, 0.0, 0.0, 0.0, 0.0)",0.006,-0.007000000000000008,-0.066,"(1.2184696791468346e-07, 0.0, 0.0, 0.0, 1.2184696791468346e-07, 0.0, 0.0, 0.0, 1.2184696791468346e-07)",-1.14737805,0.1470997500000012,9.6497436,"(8.999999999999999e-08, 0.0, 0.0, 0.0, 8.999999999999999e-08, 0.0, 0.0, 0.0, 8.999999999999999e-08)"
2025/07/05/17:44:15.782484,7284,1751712255,779869960,base_link,0.0,0.0,0.0,0.0,"(-1.0, 0.0, 0.0, 0.0, 0.0, 0.0, 0.0, 0.0, 0.0)",0.056,-0.01800000000000001,-0.062,"(1.2184696791468346e-07, 0.0, 0.0, 0.0, 1.2184696791468346e-07, 0.0, 0.0, 0.0, 1.2184696791468346e-07)",-0.89240515,0.3040061500000012,9.73800345,"(8.999999999999999e-08, 0.0, 0.0, 0.0, 8.999999999999999e-08, 0.0, 0.0, 0.0, 8.999999999999999e-08)"
2025/07/05/17:44:15.903753,7285,1751712255,900993640,base_link,0.0,0.0,0.0,0.0,"(-1.0, 0.0, 0.0, 0.0, 0.0, 0.0, 0.0, 0.0, 0.0)",0.115,-0.013000000000000012,-0.084,"(1.2184696791468346e-07, 0.0, 0.0, 0.0, 1.2184696791468346e-07, 0.0, 0.0, 0.0, 1.2184696791468346e-07)",-1.1571847,0.2255529500000012,9.7281968,"(8.999999999999999e-08, 0.0, 0.0, 0.0, 8.999999999999999e-08, 0.0, 0.0, 0.0, 8.999999999999999e-08)"
2025/07/05/17:44:16.004574,7286,1751712256,1280272,base_link,0.0,0.0,0.0,0.0,"(-1.0, 0.0, 0.0, 0.0, 0.0, 0.0, 0.0, 0.0, 0.0)",0.068,0.005999999999999988,-0.098,"(1.2184696791468346e-07, 0.0, 0.0, 0.0, 1.2184696791468346e-07, 0.0, 0.0, 0.0, 1.2184696791468346e-07)",-1.34351105,0.2451662500000012,9.6889702,"(8.999999999999999e-08, 0.0, 0.0, 0.0, 8.999999999999999e-08, 0.0, 0.0, 0.0, 8.999999999999999e-08)"
2025/07/05/17:44:16.103252,7287,1751712256,100267440,base_link,0.0,0.0,0.0,0.0,"(-1.0, 0.0, 0.0, 0.0, 0.0, 0.0, 0.0, 0.0, 0.0)",-0.001,0.017999999999999988,-0.111,"(1.2184696791468346e-07, 0.0, 0.0, 0.0, 1.2184696791468346e-07, 0.0, 0.0, 0.0, 1.2184696791468346e-07)",-1.30428445,0.1863263500000012,9.6497436,"(8.999999999999999e-08, 0.0, 0.0, 0.0, 8.999999999999999e-08, 0.0, 0.0, 0.0, 8.999999999999999e-08)"
2025/07/05/17:44:16.205127,7288,1751712256,201255864,base_link,0.0,0.0,0.0,0.0,"(-1.0, 0.0, 0.0, 0.0, 0.0, 0.0, 0.0, 0.0, 0.0)",-0.036000000000000004,0.009999999999999986,-0.116,"(1.2184696791468346e-07, 0.0, 0.0, 0.0, 1.2184696791468346e-07, 0.0, 0.0, 0.0, 1.2184696791468346e-07)",-1.28467115,0.1765197000000012,9.610517,"(8.999999999999999e-08, 0.0, 0.0, 0.0, 8.999999999999999e-08, 0.0, 0.0, 0.0, 8.999999999999999e-08)"
2025/07/05/17:44:16.282155,7289,1751712256,279288544,base_link,0.0,0.0,0.0,0.0,"(-1.0, 0.0, 0.0, 0.0, 0.0, 0.0, 0.0, 0.0, 0.0)",-0.028,-0.0010000000000000141,-0.115,"(1.2184696791468346e-07, 0.0, 0.0, 0.0, 1.2184696791468346e-07, 0.0, 0.0, 0.0, 1.2184696791468346e-07)",-1.50041745,0.1372931000000012,9.639936950000001,"(8.999999999999999e-08, 0.0, 0.0, 0.0, 8.999999999999999e-08, 0.0, 0.0, 0.0, 8.999999999999999e-08)"
2025/07/05/17:44:16.404591,7290,1751712256,401055688,base_link,0.0,0.0,0.0,0.0,"(-1.0, 0.0, 0.0, 0.0, 0.0, 0.0, 0.0, 0.0, 0.0)",0.005,-0.010000000000000012,-0.105,"(1.2184696791468346e-07, 0.0, 0.0, 0.0, 1.2184696791468346e-07, 0.0, 0.0, 0.0, 1.2184696791468346e-07)",-1.5298374,1.18055179297998e-15,9.639936950000001,"(8.999999999999999e-08, 0.0, 0.0, 0.0, 8.999999999999999e-08, 0.0, 0.0, 0.0, 8.999999999999999e-08)"
2025/07/05/17:44:16.544806,7291,1751712256,539921600,base_link,0.0,0.0,0.0,0.0,"(-1.0, 0.0, 0.0, 0.0, 0.0, 0.0, 0.0, 0.0, 0.0)",0.029,-0.0030000000000000105,-0.085,"(1.2184696791468346e-07, 0.0, 0.0, 0.0, 1.2184696791468346e-07, 0.0, 0.0, 0.0, 1.2184696791468346e-07)",-1.48080415,0.03922660000000119,9.67916355,"(8.999999999999999e-08, 0.0, 0.0, 0.0, 8.999999999999999e-08, 0.0, 0.0, 0.0, 8.999999999999999e-08)"
2025/07/05/17:44:16.626484,7292,1751712256,623362744,base_link,0.0,0.0,0.0,0.0,"(-1.0, 0.0, 0.0, 0.0, 0.0, 0.0, 0.0, 0.0, 0.0)",0.044,-9.429780353434619e-18,-0.077,"(1.2184696791468346e-07, 0.0, 0.0, 0.0, 1.2184696791468346e-07, 0.0, 0.0, 0.0, 1.2184696791468346e-07)",-1.3337044,1.1829537294865517e-15,9.65955025,"(8.999999999999999e-08, 0.0, 0.0, 0.0, 8.999999999999999e-08, 0.0, 0.0, 0.0, 8.999999999999999e-08)"
2025/07/05/17:44:16.705117,7293,1751712256,701051680,base_link,0.0,0.0,0.0,0.0,"(-1.0, 0.0, 0.0, 0.0, 0.0, 0.0, 0.0, 0.0, 0.0)",0.062,-0.015000000000000008,-0.07,"(1.2184696791468346e-07, 0.0, 0.0, 0.0, 1.2184696791468346e-07, 0.0, 0.0, 0.0, 1.2184696791468346e-07)",-0.77472535,0.1274864500000012,9.6889702,"(8.999999999999999e-08, 0.0, 0.0, 0.0, 8.999999999999999e-08, 0.0, 0.0, 0.0, 8.999999999999999e-08)"
2025/07/05/17:44:16.805540,7294,1751712256,801372872,base_link,0.0,0.0,0.0,0.0,"(-1.0, 0.0, 0.0, 0.0, 0.0, 0.0, 0.0, 0.0, 0.0)",0.107,-0.03400000000000001,-0.082,"(1.2184696791468346e-07, 0.0, 0.0, 0.0, 1.2184696791468346e-07, 0.0, 0.0, 0.0, 1.2184696791468346e-07)",-1.0983448,0.4216859500000012,9.80665,"(8.999999999999999e-08, 0.0, 0.0, 0.0, 8.999999999999999e-08, 0.0, 0.0, 0.0, 8.999999999999999e-08)"
2025/07/05/17:44:16.922815,7295,1751712256,920212528,base_link,0.0,0.0,0.0,0.0,"(-1.0, 0.0, 0.0, 0.0, 0.0, 0.0, 0.0, 0.0, 0.0)",0.08700000000000001,-0.021000000000000015,-0.107,"(1.2184696791468346e-07, 0.0, 0.0, 0.0, 1.2184696791468346e-07, 0.0, 0.0, 0.0, 1.2184696791468346e-07)",-0.67665885,0.4216859500000012,9.7870367,"(8.999999999999999e-08, 0.0, 0.0, 0.0, 8.999999999999999e-08, 0.0, 0.0, 0.0, 8.999999999999999e-08)"
2025/07/05/17:44:17.044782,7296,1751712257,39261904,base_link,0.0,0.0,0.0,0.0,"(-1.0, 0.0, 0.0, 0.0, 0.0, 0.0, 0.0, 0.0, 0.0)",0.045,-0.011000000000000018,-0.151,"(1.2184696791468346e-07, 0.0, 0.0, 0.0, 1.2184696791468346e-07, 0.0, 0.0, 0.0, 1.2184696791468346e-07)",-1.1179581,0.3236194500000012,9.67916355,"(8.999999999999999e-08, 0.0, 0.0, 0.0, 8.999999999999999e-08, 0.0, 0.0, 0.0, 8.999999999999999e-08)"
2025/07/05/17:44:17.144042,7297,1751712257,139305048,base_link,0.0,0.0,0.0,0.0,"(-1.0, 0.0, 0.0, 0.0, 0.0, 0.0, 0.0, 0.0, 0.0)",-0.017,-0.0010000000000000208,-0.17,"(1.2184696791468346e-07, 0.0, 0.0, 0.0, 1.2184696791468346e-07, 0.0, 0.0, 0.0, 1.2184696791468346e-07)",-1.0787315,0.39226600000000117,9.73800345,"(8.999999999999999e-08, 0.0, 0.0, 0.0, 8.999999999999999e-08, 0.0, 0.0, 0.0, 8.999999999999999e-08)"
2025/07/05/17:44:17.204267,7298,1751712257,201521728,base_link,0.0,0.0,0.0,0.0,"(-1.0, 0.0, 0.0, 0.0, 0.0, 0.0, 0.0, 0.0, 0.0)",-0.042,0.0009999999999999786,-0.176,"(1.2184696791468346e-07, 0.0, 0.0, 0.0, 1.2184696791468346e-07, 0.0, 0.0, 0.0, 1.2184696791468346e-07)",-1.0395049,0.11767980000000118,9.6301303,"(8.999999999999999e-08, 0.0, 0.0, 0.0, 8.999999999999999e-08, 0.0, 0.0, 0.0, 8.999999999999999e-08)"
2025/07/05/17:44:17.283905,7299,1751712257,280018896,base_link,0.0,0.0,0.0,0.0,"(-1.0, 0.0, 0.0, 0.0, 0.0, 0.0, 0.0, 0.0, 0.0)",-0.051000000000000004,0.004999999999999978,-0.178,"(1.2184696791468346e-07, 0.0, 0.0, 0.0, 1.2184696791468346e-07, 0.0, 0.0, 0.0, 1.2184696791468346e-07)",-1.10815145,0.10787315000000118,9.73800345,"(8.999999999999999e-08, 0.0, 0.0, 0.0, 8.999999999999999e-08, 0.0, 0.0, 0.0, 8.999999999999999e-08)"
2025/07/05/17:44:17.426310,7300,1751712257,423927760,base_link,0.0,0.0,0.0,0.0,"(-1.0, 0.0, 0.0, 0.0, 0.0, 0.0, 0.0, 0.0, 0.0)",0.004,0.013999999999999978,-0.187,"(1.2184696791468346e-07, 0.0, 0.0, 0.0, 1.2184696791468346e-07, 0.0, 0.0, 0.0, 1.2184696791468346e-07)",-1.22583125,-0.08825984999999882,9.6693569,"(8.999999999999999e-08, 0.0, 0.0, 0.0, 8.999999999999999e-08, 0.0, 0.0, 0.0, 8.999999999999999e-08)"
2025/07/05/17:44:17.582542,7301,1751712257,579829816,base_link,0.0,0.0,0.0,0.0,"(-1.0, 0.0, 0.0, 0.0, 0.0, 0.0, 0.0, 0.0, 0.0)",0.061,0.0009999999999999773,-0.186,"(1.2184696791468346e-07, 0.0, 0.0, 0.0, 1.2184696791468346e-07, 0.0, 0.0, 0.0, 1.2184696791468346e-07)",-1.2944778000000001,-0.06864654999999882,9.6889702,"(8.999999999999999e-08, 0.0, 0.0, 0.0, 8.999999999999999e-08, 0.0, 0.0, 0.0, 8.999999999999999e-08)"
2025/07/05/17:44:17.682853,7302,1751712257,679835728,base_link,0.0,0.0,0.0,0.0,"(-1.0, 0.0, 0.0, 0.0, 0.0, 0.0, 0.0, 0.0, 0.0)",0.057,-0.008000000000000021,-0.17500000000000002,"(1.2184696791468346e-07, 0.0, 0.0, 0.0, 1.2184696791468346e-07, 0.0, 0.0, 0.0, 1.2184696791468346e-07)",-1.36312435,0.10787315000000118,9.7085835,"(8.999999999999999e-08, 0.0, 0.0, 0.0, 8.999999999999999e-08, 0.0, 0.0, 0.0, 8.999999999999999e-08)"
2025/07/05/17:44:17.782950,7303,1751712257,779276920,base_link,0.0,0.0,0.0,0.0,"(-1.0, 0.0, 0.0, 0.0, 0.0, 0.0, 0.0, 0.0, 0.0)",0.059000000000000004,-0.00400000000000002,-0.166,"(1.2184696791468346e-07, 0.0, 0.0, 0.0, 1.2184696791468346e-07, 0.0, 0.0, 0.0, 1.2184696791468346e-07)",-1.53964405,-0.06864654999999882,9.65955025,"(8.999999999999999e-08, 0.0, 0.0, 0.0, 8.999999999999999e-08, 0.0, 0.0, 0.0, 8.999999999999999e-08)"
2025/07/05/17:44:17.882661,7304,1751712257,879717808,base_link,0.0,0.0,0.0,0.0,"(-1.0, 0.0, 0.0, 0.0, 0.0, 0.0, 0.0, 0.0, 0.0)",0.045,-1.7512449227807152e-17,-0.14300000000000002,"(1.2184696791468346e-07, 0.0, 0.0, 0.0, 1.2184696791468346e-07, 0.0, 0.0, 0.0, 1.2184696791468346e-07)",-1.57887065,1.1817527612332657e-15,9.6497436,"(8.999999999999999e-08, 0.0, 0.0, 0.0, 8.999999999999999e-08, 0.0, 0.0, 0.0, 8.999999999999999e-08)"
2025/07/05/17:44:18.004058,7305,1751712258,1151928,base_link,0.0,0.0,0.0,0.0,"(-1.0, 0.0, 0.0, 0.0, 0.0, 0.0, 0.0, 0.0, 0.0)",0.038,0.005999999999999985,-0.117,"(1.2184696791468346e-07, 0.0, 0.0, 0.0, 1.2184696791468346e-07, 0.0, 0.0, 0.0, 1.2184696791468346e-07)",-1.53964405,0.009806650000001178,9.62032365,"(8.999999999999999e-08, 0.0, 0.0, 0.0, 8.999999999999999e-08, 0.0, 0.0, 0.0, 8.999999999999999e-08)"
2025/07/05/17:44:18.083033,7306,1751712258,79199048,base_link,0.0,0.0,0.0,0.0,"(-1.0, 0.0, 0.0, 0.0, 0.0, 0.0, 0.0, 0.0, 0.0)",0.034,0.005999999999999987,-0.106,"(1.2184696791468346e-07, 0.0, 0.0, 0.0, 1.2184696791468346e-07, 0.0, 0.0, 0.0, 1.2184696791468346e-07)",-1.5494507,0.06864655000000118,9.610517,"(8.999999999999999e-08, 0.0, 0.0, 0.0, 8.999999999999999e-08, 0.0, 0.0, 0.0, 8.999999999999999e-08)"
2025/07/05/17:44:18.183512,7307,1751712258,179441936,base_link,0.0,0.0,0.0,0.0,"(-1.0, 0.0, 0.0, 0.0, 0.0, 0.0, 0.0, 0.0, 0.0)",0.029,0.0019999999999999875,-0.10200000000000001,"(1.2184696791468346e-07, 0.0, 0.0, 0.0, 1.2184696791468346e-07, 0.0, 0.0, 0.0, 1.2184696791468346e-07)",-1.53964405,0.08825985000000118,9.610517,"(8.999999999999999e-08, 0.0, 0.0, 0.0, 8.999999999999999e-08, 0.0, 0.0, 0.0, 8.999999999999999e-08)"
2025/07/05/17:44:18.242636,7308,1751712258,240215936,base_link,0.0,0.0,0.0,0.0,"(-1.0, 0.0, 0.0, 0.0, 0.0, 0.0, 0.0, 0.0, 0.0)",0.024,-0.0010000000000000126,-0.10300000000000001,"(1.2184696791468346e-07, 0.0, 0.0, 0.0, 1.2184696791468346e-07, 0.0, 0.0, 0.0, 1.2184696791468346e-07)",-1.5298374,0.08825985000000118,9.62032365,"(8.999999999999999e-08, 0.0, 0.0, 0.0, 8.999999999999999e-08, 0.0, 0.0, 0.0, 8.999999999999999e-08)"
2025/07/05/17:44:18.362299,7309,1751712258,359483224,base_link,0.0,0.0,0.0,0.0,"(-1.0, 0.0, 0.0, 0.0, 0.0, 0.0, 0.0, 0.0, 0.0)",0.016,-0.009000000000000015,-0.108,"(1.2184696791468346e-07, 0.0, 0.0, 0.0, 1.2184696791468346e-07, 0.0, 0.0, 0.0, 1.2184696791468346e-07)",-1.5298374,0.10787315000000118,9.65955025,"(8.999999999999999e-08, 0.0, 0.0, 0.0, 8.999999999999999e-08, 0.0, 0.0, 0.0, 8.999999999999999e-08)"
2025/07/05/17:44:18.542627,7310,1751712258,539360904,base_link,0.0,0.0,0.0,0.0,"(-1.0, 0.0, 0.0, 0.0, 0.0, 0.0, 0.0, 0.0, 0.0)",0.025,-0.010000000000000014,-0.115,"(1.2184696791468346e-07, 0.0, 0.0, 0.0, 1.2184696791468346e-07, 0.0, 0.0, 0.0, 1.2184696791468346e-07)",-1.50041745,0.05883990000000119,9.639936950000001,"(8.999999999999999e-08, 0.0, 0.0, 0.0, 8.999999999999999e-08, 0.0, 0.0, 0.0, 8.999999999999999e-08)"
2025/07/05/17:44:18.629349,7311,1751712258,623404792,base_link,0.0,0.0,0.0,0.0,"(-1.0, 0.0, 0.0, 0.0, 0.0, 0.0, 0.0, 0.0, 0.0)",0.028,-0.011000000000000013,-0.113,"(1.2184696791468346e-07, 0.0, 0.0, 0.0, 1.2184696791468346e-07, 0.0, 0.0, 0.0, 1.2184696791468346e-07)",-1.48080415,0.03922660000000117,9.6301303,"(8.999999999999999e-08, 0.0, 0.0, 0.0, 8.999999999999999e-08, 0.0, 0.0, 0.0, 8.999999999999999e-08)"
2025/07/05/17:44:18.704812,7312,1751712258,701216984,base_link,0.0,0.0,0.0,0.0,"(-1.0, 0.0, 0.0, 0.0, 0.0, 0.0, 0.0, 0.0, 0.0)",0.03,-0.015000000000000013,-0.107,"(1.2184696791468346e-07, 0.0, 0.0, 0.0, 1.2184696791468346e-07, 0.0, 0.0, 0.0, 1.2184696791468346e-07)",-1.4709975,0.00980665000000118,9.6301303,"(8.999999999999999e-08, 0.0, 0.0, 0.0, 8.999999999999999e-08, 0.0, 0.0, 0.0, 8.999999999999999e-08)"
2025/07/05/17:44:18.806705,7313,1751712258,800712384,base_link,0.0,0.0,0.0,0.0,"(-1.0, 0.0, 0.0, 0.0, 0.0, 0.0, 0.0, 0.0, 0.0)",0.03,-0.01700000000000001,-0.093,"(1.2184696791468346e-07, 0.0, 0.0, 0.0, 1.2184696791468346e-07, 0.0, 0.0, 0.0, 1.2184696791468346e-07)",-1.4513842000000001,-0.02941994999999882,9.639936950000001,"(8.999999999999999e-08, 0.0, 0.0, 0.0, 8.999999999999999e-08, 0.0, 0.0, 0.0, 8.999999999999999e-08)"
2025/07/05/17:44:18.904063,7314,1751712258,900686272,base_link,0.0,0.0,0.0,0.0,"(-1.0, 0.0, 0.0, 0.0, 0.0, 0.0, 0.0, 0.0, 0.0)",0.033,-0.01300000000000001,-0.073,"(1.2184696791468346e-07, 0.0, 0.0, 0.0, 1.2184696791468346e-07, 0.0, 0.0, 0.0, 1.2184696791468346e-07)",-1.4513842000000001,0.009806650000001183,9.65955025,"(8.999999999999999e-08, 0.0, 0.0, 0.0, 8.999999999999999e-08, 0.0, 0.0, 0.0, 8.999999999999999e-08)"
2025/07/05/17:44:19.004743,7315,1751712259,990672,base_link,0.0,0.0,0.0,0.0,"(-1.0, 0.0, 0.0, 0.0, 0.0, 0.0, 0.0, 0.0, 0.0)",0.045,-0.002000000000000007,-0.056,"(1.2184696791468346e-07, 0.0, 0.0, 0.0, 1.2184696791468346e-07, 0.0, 0.0, 0.0, 1.2184696791468346e-07)",-1.4513842000000001,0.03922660000000119,9.6693569,"(8.999999999999999e-08, 0.0, 0.0, 0.0, 8.999999999999999e-08, 0.0, 0.0, 0.0, 8.999999999999999e-08)"
2025/07/05/17:44:19.082264,7316,1751712259,79809048,base_link,0.0,0.0,0.0,0.0,"(-1.0, 0.0, 0.0, 0.0, 0.0, 0.0, 0.0, 0.0, 0.0)",0.047,0.006999999999999995,-0.046,"(1.2184696791468346e-07, 0.0, 0.0, 0.0, 1.2184696791468346e-07, 0.0, 0.0, 0.0, 1.2184696791468346e-07)",-1.2160246,0.06864655000000118,9.6693569,"(8.999999999999999e-08, 0.0, 0.0, 0.0, 8.999999999999999e-08, 0.0, 0.0, 0.0, 8.999999999999999e-08)"
2025/07/05/17:44:19.183211,7317,1751712259,179865752,base_link,0.0,0.0,0.0,0.0,"(-1.0, 0.0, 0.0, 0.0, 0.0, 0.0, 0.0, 0.0, 0.0)",0.052000000000000005,-0.008000000000000005,-0.046,"(1.2184696791468346e-07, 0.0, 0.0, 0.0, 1.2184696791468346e-07, 0.0, 0.0, 0.0, 1.2184696791468346e-07)",-1.176798,0.35303940000000117,9.77723005,"(8.999999999999999e-08, 0.0, 0.0, 0.0, 8.999999999999999e-08, 0.0, 0.0, 0.0, 8.999999999999999e-08)"
2025/07/05/17:44:19.283036,7318,1751712259,279455920,base_link,0.0,0.0,0.0,0.0,"(-1.0, 0.0, 0.0, 0.0, 0.0, 0.0, 0.0, 0.0, 0.0)",0.073,-0.0010000000000000109,-0.089,"(1.2184696791468346e-07, 0.0, 0.0, 0.0, 1.2184696791468346e-07, 0.0, 0.0, 0.0, 1.2184696791468346e-07)",-1.4906108,0.11767980000000118,9.69877685,"(8.999999999999999e-08, 0.0, 0.0, 0.0, 8.999999999999999e-08, 0.0, 0.0, 0.0, 8.999999999999999e-08)"
2025/07/05/17:44:19.405992,7319,1751712259,401334320,base_link,0.0,0.0,0.0,0.0,"(-1.0, 0.0, 0.0, 0.0, 0.0, 0.0, 0.0, 0.0, 0.0)",-0.007,0.016999999999999987,-0.121,"(1.2184696791468346e-07, 0.0, 0.0, 0.0, 1.2184696791468346e-07, 0.0, 0.0, 0.0, 1.2184696791468346e-07)",-1.4709975,0.1470997500000012,9.6497436,"(8.999999999999999e-08, 0.0, 0.0, 0.0, 8.999999999999999e-08, 0.0, 0.0, 0.0, 8.999999999999999e-08)"
2025/07/05/17:44:19.582282,7320,1751712259,579472888,base_link,0.0,0.0,0.0,0.0,"(-1.0, 0.0, 0.0, 0.0, 0.0, 0.0, 0.0, 0.0, 0.0)",-0.059000000000000004,0.0019999999999999844,-0.127,"(1.2184696791468346e-07, 0.0, 0.0, 0.0, 1.2184696791468346e-07, 0.0, 0.0, 0.0, 1.2184696791468346e-07)",-1.4906108,0.009806650000001176,9.60071035,"(8.999999999999999e-08, 0.0, 0.0, 0.0, 8.999999999999999e-08, 0.0, 0.0, 0.0, 8.999999999999999e-08)"
2025/07/05/17:44:19.643296,7321,1751712259,640015888,base_link,0.0,0.0,0.0,0.0,"(-1.0, 0.0, 0.0, 0.0, 0.0, 0.0, 0.0, 0.0, 0.0)",-0.028,-0.005000000000000015,-0.11900000000000001,"(1.2184696791468346e-07, 0.0, 0.0, 0.0, 1.2184696791468346e-07, 0.0, 0.0, 0.0, 1.2184696791468346e-07)",-1.4709975,-0.009806649999998824,9.60071035,"(8.999999999999999e-08, 0.0, 0.0, 0.0, 8.999999999999999e-08, 0.0, 0.0, 0.0, 8.999999999999999e-08)"
2025/07/05/17:44:19.762256,7322,1751712259,759495640,base_link,0.0,0.0,0.0,0.0,"(-1.0, 0.0, 0.0, 0.0, 0.0, 0.0, 0.0, 0.0, 0.0)",0.06,-0.02000000000000001,-0.091,"(1.2184696791468346e-07, 0.0, 0.0, 0.0, 1.2184696791468346e-07, 0.0, 0.0, 0.0, 1.2184696791468346e-07)",-1.46119085,-0.05883989999999883,9.610517,"(8.999999999999999e-08, 0.0, 0.0, 0.0, 8.999999999999999e-08, 0.0, 0.0, 0.0, 8.999999999999999e-08)"
2025/07/05/17:44:19.863625,7323,1751712259,859450272,base_link,0.0,0.0,0.0,0.0,"(-1.0, 0.0, 0.0, 0.0, 0.0, 0.0, 0.0, 0.0, 0.0)",0.111,-0.02500000000000001,-0.065,"(1.2184696791468346e-07, 0.0, 0.0, 0.0, 1.2184696791468346e-07, 0.0, 0.0, 0.0, 1.2184696791468346e-07)",-1.4513842000000001,0.009806650000001183,9.6497436,"(8.999999999999999e-08, 0.0, 0.0, 0.0, 8.999999999999999e-08, 0.0, 0.0, 0.0, 8.999999999999999e-08)"
2025/07/05/17:44:19.983188,7324,1751712259,979679976,base_link,0.0,0.0,0.0,0.0,"(-1.0, 0.0, 0.0, 0.0, 0.0, 0.0, 0.0, 0.0, 0.0)",0.116,-0.014000000000000007,-0.05,"(1.2184696791468346e-07, 0.0, 0.0, 0.0, 1.2184696791468346e-07, 0.0, 0.0, 0.0, 1.2184696791468346e-07)",-1.4709975,0.08825985000000118,9.69877685,"(8.999999999999999e-08, 0.0, 0.0, 0.0, 8.999999999999999e-08, 0.0, 0.0, 0.0, 8.999999999999999e-08)"
2025/07/05/17:44:20.083057,7325,1751712260,79886936,base_link,0.0,0.0,0.0,0.0,"(-1.0, 0.0, 0.0, 0.0, 0.0, 0.0, 0.0, 0.0, 0.0)",0.059000000000000004,0.0029999999999999936,-0.053,"(1.2184696791468346e-07, 0.0, 0.0, 0.0, 1.2184696791468346e-07, 0.0, 0.0, 0.0, 1.2184696791468346e-07)",-1.4513842000000001,0.1765197000000012,9.69877685,"(8.999999999999999e-08, 0.0, 0.0, 0.0, 8.999999999999999e-08, 0.0, 0.0, 0.0, 8.999999999999999e-08)"
2025/07/05/17:44:20.182722,7326,1751712260,179595384,base_link,0.0,0.0,0.0,0.0,"(-1.0, 0.0, 0.0, 0.0, 0.0, 0.0, 0.0, 0.0, 0.0)",-0.016,0.016999999999999994,-0.066,"(1.2184696791468346e-07, 0.0, 0.0, 0.0, 1.2184696791468346e-07, 0.0, 0.0, 0.0, 1.2184696791468346e-07)",-1.4513842000000001,0.2059396500000012,9.67916355,"(8.999999999999999e-08, 0.0, 0.0, 0.0, 8.999999999999999e-08, 0.0, 0.0, 0.0, 8.999999999999999e-08)"
2025/07/05/17:44:20.283048,7327,1751712260,279551088,base_link,0.0,0.0,0.0,0.0,"(-1.0, 0.0, 0.0, 0.0, 0.0, 0.0, 0.0, 0.0, 0.0)",-0.069,0.01899999999999999,-0.082,"(1.2184696791468346e-07, 0.0, 0.0, 0.0, 1.2184696791468346e-07, 0.0, 0.0, 0.0, 1.2184696791468346e-07)",-1.3533177,0.1470997500000012,9.62032365,"(8.999999999999999e-08, 0.0, 0.0, 0.0, 8.999999999999999e-08, 0.0, 0.0, 0.0, 8.999999999999999e-08)"
2025/07/05/17:44:20.363946,7328,1751712260,360607976,base_link,0.0,0.0,0.0,0.0,"(-1.0, 0.0, 0.0, 0.0, 0.0, 0.0, 0.0, 0.0, 0.0)",-0.077,0.00599999999999999,-0.08600000000000001,"(1.2184696791468346e-07, 0.0, 0.0, 0.0, 1.2184696791468346e-07, 0.0, 0.0, 0.0, 1.2184696791468346e-07)",-1.32389775,0.10787315000000118,9.62032365,"(8.999999999999999e-08, 0.0, 0.0, 0.0, 8.999999999999999e-08, 0.0, 0.0, 0.0, 8.999999999999999e-08)"
2025/07/05/17:44:20.583325,7329,1751712260,579900800,base_link,0.0,0.0,0.0,0.0,"(-1.0, 0.0, 0.0, 0.0, 0.0, 0.0, 0.0, 0.0, 0.0)",0.085,-0.02700000000000001,-0.074,"(1.2184696791468346e-07, 0.0, 0.0, 0.0, 1.2184696791468346e-07, 0.0, 0.0, 0.0, 1.2184696791468346e-07)",-1.3533177,0.03922660000000117,9.6301303,"(8.999999999999999e-08, 0.0, 0.0, 0.0, 8.999999999999999e-08, 0.0, 0.0, 0.0, 8.999999999999999e-08)"
2025/07/05/17:44:20.663663,7330,1751712260,660652248,base_link,0.0,0.0,0.0,0.0,"(-1.0, 0.0, 0.0, 0.0, 0.0, 0.0, 0.0, 0.0, 0.0)",0.13,-0.023000000000000007,-0.061,"(1.2184696791468346e-07, 0.0, 0.0, 0.0, 1.2184696791468346e-07, 0.0, 0.0, 0.0, 1.2184696791468346e-07)",-1.36312435,0.02941995000000118,9.639936950000001,"(8.999999999999999e-08, 0.0, 0.0, 0.0, 8.999999999999999e-08, 0.0, 0.0, 0.0, 8.999999999999999e-08)"
2025/07/05/17:44:20.783482,7331,1751712260,779538136,base_link,0.0,0.0,0.0,0.0,"(-1.0, 0.0, 0.0, 0.0, 0.0, 0.0, 0.0, 0.0, 0.0)",0.12,-0.007000000000000005,-0.046,"(1.2184696791468346e-07, 0.0, 0.0, 0.0, 1.2184696791468346e-07, 0.0, 0.0, 0.0, 1.2184696791468346e-07)",-1.40235095,0.08825985000000118,9.65955025,"(8.999999999999999e-08, 0.0, 0.0, 0.0, 8.999999999999999e-08, 0.0, 0.0, 0.0, 8.999999999999999e-08)"
2025/07/05/17:44:20.882772,7332,1751712260,879876072,base_link,0.0,0.0,0.0,0.0,"(-1.0, 0.0, 0.0, 0.0, 0.0, 0.0, 0.0, 0.0, 0.0)",0.051000000000000004,0.003999999999999994,-0.047,"(1.2184696791468346e-07, 0.0, 0.0, 0.0, 1.2184696791468346e-07, 0.0, 0.0, 0.0, 1.2184696791468346e-07)",-1.38273765,0.1863263500000012,9.6497436,"(8.999999999999999e-08, 0.0, 0.0, 0.0, 8.999999999999999e-08, 0.0, 0.0, 0.0, 8.999999999999999e-08)"
2025/07/05/17:44:21.004377,7333,1751712261,1483216,base_link,0.0,0.0,0.0,0.0,"(-1.0, 0.0, 0.0, 0.0, 0.0, 0.0, 0.0, 0.0, 0.0)",-0.034,0.01099999999999999,-0.067,"(1.2184696791468346e-07, 0.0, 0.0, 0.0, 1.2184696791468346e-07, 0.0, 0.0, 0.0, 1.2184696791468346e-07)",-1.44157755,0.1961330000000012,9.7085835,"(8.999999999999999e-08, 0.0, 0.0, 0.0, 8.999999999999999e-08, 0.0, 0.0, 0.0, 8.999999999999999e-08)"
2025/07/05/17:44:21.083586,7334,1751712261,79567592,base_link,0.0,0.0,0.0,0.0,"(-1.0, 0.0, 0.0, 0.0, 0.0, 0.0, 0.0, 0.0, 0.0)",-0.07200000000000001,0.00899999999999999,-0.085,"(1.2184696791468346e-07, 0.0, 0.0, 0.0, 1.2184696791468346e-07, 0.0, 0.0, 0.0, 1.2184696791468346e-07)",-1.40235095,0.2157463000000012,9.7478101,"(8.999999999999999e-08, 0.0, 0.0, 0.0, 8.999999999999999e-08, 0.0, 0.0, 0.0, 8.999999999999999e-08)"
2025/07/05/17:44:21.183235,7335,1751712261,179675736,base_link,0.0,0.0,0.0,0.0,"(-1.0, 0.0, 0.0, 0.0, 0.0, 0.0, 0.0, 0.0, 0.0)",-0.076,0.003999999999999988,-0.101,"(1.2184696791468346e-07, 0.0, 0.0, 0.0, 1.2184696791468346e-07, 0.0, 0.0, 0.0, 1.2184696791468346e-07)",-1.4121576,0.10787315000000118,9.73800345,"(8.999999999999999e-08, 0.0, 0.0, 0.0, 8.999999999999999e-08, 0.0, 0.0, 0.0, 8.999999999999999e-08)"
2025/07/05/17:44:21.283063,7336,1751712261,279686880,base_link,0.0,0.0,0.0,0.0,"(-1.0, 0.0, 0.0, 0.0, 0.0, 0.0, 0.0, 0.0, 0.0)",-0.019,-0.004000000000000013,-0.105,"(1.2184696791468346e-07, 0.0, 0.0, 0.0, 1.2184696791468346e-07, 0.0, 0.0, 0.0, 1.2184696791468346e-07)",-1.42196425,0.019613300000001183,9.6693569,"(8.999999999999999e-08, 0.0, 0.0, 0.0, 8.999999999999999e-08, 0.0, 0.0, 0.0, 8.999999999999999e-08)"
2025/07/05/17:44:21.382286,7337,1751712261,379569280,base_link,0.0,0.0,0.0,0.0,"(-1.0, 0.0, 0.0, 0.0, 0.0, 0.0, 0.0, 0.0, 0.0)",0.07200000000000001,-0.011000000000000012,-0.097,"(1.2184696791468346e-07, 0.0, 0.0, 0.0, 1.2184696791468346e-07, 0.0, 0.0, 0.0, 1.2184696791468346e-07)",-1.3925443,0.009806650000001178,9.610517,"(8.999999999999999e-08, 0.0, 0.0, 0.0, 8.999999999999999e-08, 0.0, 0.0, 0.0, 8.999999999999999e-08)"
2025/07/05/17:44:21.542751,7338,1751712261,540298264,base_link,0.0,0.0,0.0,0.0,"(-1.0, 0.0, 0.0, 0.0, 0.0, 0.0, 0.0, 0.0, 0.0)",0.14,-0.015000000000000008,-0.07200000000000001,"(1.2184696791468346e-07, 0.0, 0.0, 0.0, 1.2184696791468346e-07, 0.0, 0.0, 0.0, 1.2184696791468346e-07)",-1.3533177,0.10787315000000117,9.60071035,"(8.999999999999999e-08, 0.0, 0.0, 0.0, 8.999999999999999e-08, 0.0, 0.0, 0.0, 8.999999999999999e-08)"
2025/07/05/17:44:21.663701,7339,1751712261,659975808,base_link,0.0,0.0,0.0,0.0,"(-1.0, 0.0, 0.0, 0.0, 0.0, 0.0, 0.0, 0.0, 0.0)",0.077,-0.012000000000000007,-0.06,"(1.2184696791468346e-07, 0.0, 0.0, 0.0, 1.2184696791468346e-07, 0.0, 0.0, 0.0, 1.2184696791468346e-07)",-1.3925443,0.11767980000000118,9.6497436,"(8.999999999999999e-08, 0.0, 0.0, 0.0, 8.999999999999999e-08, 0.0, 0.0, 0.0, 8.999999999999999e-08)"
2025/07/05/17:44:21.723620,7340,1751712261,720728808,base_link,0.0,0.0,0.0,0.0,"(-1.0, 0.0, 0.0, 0.0, 0.0, 0.0, 0.0, 0.0, 0.0)",0.029,-0.009000000000000008,-0.06,"(1.2184696791468346e-07, 0.0, 0.0, 0.0, 1.2184696791468346e-07, 0.0, 0.0, 0.0, 1.2184696791468346e-07)",-1.38273765,0.1863263500000012,9.65955025,"(8.999999999999999e-08, 0.0, 0.0, 0.0, 8.999999999999999e-08, 0.0, 0.0, 0.0, 8.999999999999999e-08)"
2025/07/05/17:44:21.826420,7341,1751712261,823701952,base_link,0.0,0.0,0.0,0.0,"(-1.0, 0.0, 0.0, 0.0, 0.0, 0.0, 0.0, 0.0, 0.0)",-0.031,-0.0010000000000000087,-0.07,"(1.2184696791468346e-07, 0.0, 0.0, 0.0, 1.2184696791468346e-07, 0.0, 0.0, 0.0, 1.2184696791468346e-07)",-1.3925443,0.1961330000000012,9.75761675,"(8.999999999999999e-08, 0.0, 0.0, 0.0, 8.999999999999999e-08, 0.0, 0.0, 0.0, 8.999999999999999e-08)"
2025/07/05/17:44:21.962312,7342,1751712261,959731472,base_link,0.0,0.0,0.0,0.0,"(-1.0, 0.0, 0.0, 0.0, 0.0, 0.0, 0.0, 0.0, 0.0)",-0.057,0.00799999999999999,-0.08700000000000001,"(1.2184696791468346e-07, 0.0, 0.0, 0.0, 1.2184696791468346e-07, 0.0, 0.0, 0.0, 1.2184696791468346e-07)",-1.38273765,0.1372931000000012,9.7281968,"(8.999999999999999e-08, 0.0, 0.0, 0.0, 8.999999999999999e-08, 0.0, 0.0, 0.0, 8.999999999999999e-08)"
2025/07/05/17:44:22.044453,7343,1751712262,40110472,base_link,0.0,0.0,0.0,0.0,"(-1.0, 0.0, 0.0, 0.0, 0.0, 0.0, 0.0, 0.0, 0.0)",-0.044,0.011999999999999988,-0.095,"(1.2184696791468346e-07, 0.0, 0.0, 0.0, 1.2184696791468346e-07, 0.0, 0.0, 0.0, 1.2184696791468346e-07)",-1.3140911,0.11767980000000118,9.639936950000001,"(8.999999999999999e-08, 0.0, 0.0, 0.0, 8.999999999999999e-08, 0.0, 0.0, 0.0, 8.999999999999999e-08)"
2025/07/05/17:44:22.141985,7344,1751712262,140261128,base_link,0.0,0.0,0.0,0.0,"(-1.0, 0.0, 0.0, 0.0, 0.0, 0.0, 0.0, 0.0, 0.0)",0.0,0.004999999999999988,-0.098,"(1.2184696791468346e-07, 0.0, 0.0, 0.0, 1.2184696791468346e-07, 0.0, 0.0, 0.0, 1.2184696791468346e-07)",-1.38273765,0.12748645000000117,9.5909037,"(8.999999999999999e-08, 0.0, 0.0, 0.0, 8.999999999999999e-08, 0.0, 0.0, 0.0, 8.999999999999999e-08)"
2025/07/05/17:44:22.264020,7345,1751712262,259692672,base_link,0.0,0.0,0.0,0.0,"(-1.0, 0.0, 0.0, 0.0, 0.0, 0.0, 0.0, 0.0, 0.0)",0.073,-0.009000000000000011,-0.092,"(1.2184696791468346e-07, 0.0, 0.0, 0.0, 1.2184696791468346e-07, 0.0, 0.0, 0.0, 1.2184696791468346e-07)",-1.2944778000000001,0.03922660000000117,9.5712904,"(8.999999999999999e-08, 0.0, 0.0, 0.0, 8.999999999999999e-08, 0.0, 0.0, 0.0, 8.999999999999999e-08)"
2025/07/05/17:44:22.362546,7346,1751712262,360051560,base_link,0.0,0.0,0.0,0.0,"(-1.0, 0.0, 0.0, 0.0, 0.0, 0.0, 0.0, 0.0, 0.0)",0.113,-0.02200000000000001,-0.078,"(1.2184696791468346e-07, 0.0, 0.0, 0.0, 1.2184696791468346e-07, 0.0, 0.0, 0.0, 1.2184696791468346e-07)",-1.372931,0.05883990000000117,9.610517,"(8.999999999999999e-08, 0.0, 0.0, 0.0, 8.999999999999999e-08, 0.0, 0.0, 0.0, 8.999999999999999e-08)"
2025/07/05/17:44:22.545461,7347,1751712262,539578472,base_link,0.0,0.0,0.0,0.0,"(-1.0, 0.0, 0.0, 0.0, 0.0, 0.0, 0.0, 0.0, 0.0)",0.075,-0.015000000000000006,-0.053,"(1.2184696791468346e-07, 0.0, 0.0, 0.0, 1.2184696791468346e-07, 0.0, 0.0, 0.0, 1.2184696791468346e-07)",-1.3925443,0.1569064000000012,9.7085835,"(8.999999999999999e-08, 0.0, 0.0, 0.0, 8.999999999999999e-08, 0.0, 0.0, 0.0, 8.999999999999999e-08)"
2025/07/05/17:44:22.626190,7348,1751712262,623580616,base_link,0.0,0.0,0.0,0.0,"(-1.0, 0.0, 0.0, 0.0, 0.0, 0.0, 0.0, 0.0, 0.0)",0.03,-0.003000000000000007,-0.056,"(1.2184696791468346e-07, 0.0, 0.0, 0.0, 1.2184696791468346e-07, 0.0, 0.0, 0.0, 1.2184696791468346e-07)",-1.42196425,0.2451662500000012,9.75761675,"(8.999999999999999e-08, 0.0, 0.0, 0.0, 8.999999999999999e-08, 0.0, 0.0, 0.0, 8.999999999999999e-08)"
2025/07/05/17:44:22.704566,7349,1751712262,701414016,base_link,0.0,0.0,0.0,0.0,"(-1.0, 0.0, 0.0, 0.0, 0.0, 0.0, 0.0, 0.0, 0.0)",-0.012,0.008999999999999992,-0.074,"(1.2184696791468346e-07, 0.0, 0.0, 0.0, 1.2184696791468346e-07, 0.0, 0.0, 0.0, 1.2184696791468346e-07)",-1.42196425,0.1667130500000012,9.75761675,"(8.999999999999999e-08, 0.0, 0.0, 0.0, 8.999999999999999e-08, 0.0, 0.0, 0.0, 8.999999999999999e-08)"
2025/07/05/17:44:22.805977,7350,1751712262,801546416,base_link,0.0,0.0,0.0,0.0,"(-1.0, 0.0, 0.0, 0.0, 0.0, 0.0, 0.0, 0.0, 0.0)",-0.07,0.01699999999999999,-0.097,"(1.2184696791468346e-07, 0.0, 0.0, 0.0, 1.2184696791468346e-07, 0.0, 0.0, 0.0, 1.2184696791468346e-07)",-1.42196425,0.1470997500000012,9.6889702,"(8.999999999999999e-08, 0.0, 0.0, 0.0, 8.999999999999999e-08, 0.0, 0.0, 0.0, 8.999999999999999e-08)"
2025/07/05/17:44:22.881976,7351,1751712262,879632536,base_link,0.0,0.0,0.0,0.0,"(-1.0, 0.0, 0.0, 0.0, 0.0, 0.0, 0.0, 0.0, 0.0)",-0.088,0.013999999999999986,-0.108,"(1.2184696791468346e-07, 0.0, 0.0, 0.0, 1.2184696791468346e-07, 0.0, 0.0, 0.0, 1.2184696791468346e-07)",-1.3925443,0.08825985000000118,9.639936950000001,"(8.999999999999999e-08, 0.0, 0.0, 0.0, 8.999999999999999e-08, 0.0, 0.0, 0.0, 8.999999999999999e-08)"
2025/07/05/17:44:23.004744,7352,1751712263,1494448,base_link,0.0,0.0,0.0,0.0,"(-1.0, 0.0, 0.0, 0.0, 0.0, 0.0, 0.0, 0.0, 0.0)",-0.02,-0.004000000000000013,-0.106,"(1.2184696791468346e-07, 0.0, 0.0, 0.0, 1.2184696791468346e-07, 0.0, 0.0, 0.0, 1.2184696791468346e-07)",-1.38273765,0.019613300000001176,9.5909037,"(8.999999999999999e-08, 0.0, 0.0, 0.0, 8.999999999999999e-08, 0.0, 0.0, 0.0, 8.999999999999999e-08)"
2025/07/05/17:44:23.063084,7353,1751712263,60605872,base_link,0.0,0.0,0.0,0.0,"(-1.0, 0.0, 0.0, 0.0, 0.0, 0.0, 0.0, 0.0, 0.0)",0.045,-0.013000000000000013,-0.096,"(1.2184696791468346e-07, 0.0, 0.0, 0.0, 1.2184696791468346e-07, 0.0, 0.0, 0.0, 1.2184696791468346e-07)",-1.36312435,0.04903325000000117,9.5909037,"(8.999999999999999e-08, 0.0, 0.0, 0.0, 8.999999999999999e-08, 0.0, 0.0, 0.0, 8.999999999999999e-08)"
2025/07/05/17:44:23.182755,7354,1751712263,179683760,base_link,0.0,0.0,0.0,0.0,"(-1.0, 0.0, 0.0, 0.0, 0.0, 0.0, 0.0, 0.0, 0.0)",0.16,-0.02500000000000001,-0.068,"(1.2184696791468346e-07, 0.0, 0.0, 0.0, 1.2184696791468346e-07, 0.0, 0.0, 0.0, 1.2184696791468346e-07)",-1.176798,0.07845320000000118,9.639936950000001,"(8.999999999999999e-08, 0.0, 0.0, 0.0, 8.999999999999999e-08, 0.0, 0.0, 0.0, 8.999999999999999e-08)"
2025/07/05/17:44:23.282964,7355,1751712263,280236904,base_link,0.0,0.0,0.0,0.0,"(-1.0, 0.0, 0.0, 0.0, 0.0, 0.0, 0.0, 0.0, 0.0)",0.169,-0.02500000000000001,-0.057,"(1.2184696791468346e-07, 0.0, 0.0, 0.0, 1.2184696791468346e-07, 0.0, 0.0, 0.0, 1.2184696791468346e-07)",-1.4121576,0.1863263500000012,9.7281968,"(8.999999999999999e-08, 0.0, 0.0, 0.0, 8.999999999999999e-08, 0.0, 0.0, 0.0, 8.999999999999999e-08)"
2025/07/05/17:44:23.425998,7356,1751712263,423580512,base_link,0.0,0.0,0.0,0.0,"(-1.0, 0.0, 0.0, 0.0, 0.0, 0.0, 0.0, 0.0, 0.0)",0.017,-0.0010000000000000085,-0.069,"(1.2184696791468346e-07, 0.0, 0.0, 0.0, 1.2184696791468346e-07, 0.0, 0.0, 0.0, 1.2184696791468346e-07)",-1.46119085,0.2451662500000012,9.7085835,"(8.999999999999999e-08, 0.0, 0.0, 0.0, 8.999999999999999e-08, 0.0, 0.0, 0.0, 8.999999999999999e-08)"
2025/07/05/17:44:23.543500,7357,1751712263,540334144,base_link,0.0,0.0,0.0,0.0,"(-1.0, 0.0, 0.0, 0.0, 0.0, 0.0, 0.0, 0.0, 0.0)",-0.101,0.017999999999999988,-0.10300000000000001,"(1.2184696791468346e-07, 0.0, 0.0, 0.0, 1.2184696791468346e-07, 0.0, 0.0, 0.0, 1.2184696791468346e-07)",-1.38273765,0.2059396500000012,9.7281968,"(8.999999999999999e-08, 0.0, 0.0, 0.0, 8.999999999999999e-08, 0.0, 0.0, 0.0, 8.999999999999999e-08)"
2025/07/05/17:44:23.662375,7358,1751712263,660448152,base_link,0.0,0.0,0.0,0.0,"(-1.0, 0.0, 0.0, 0.0, 0.0, 0.0, 0.0, 0.0, 0.0)",-0.115,0.015999999999999986,-0.11900000000000001,"(1.2184696791468346e-07, 0.0, 0.0, 0.0, 1.2184696791468346e-07, 0.0, 0.0, 0.0, 1.2184696791468346e-07)",-1.40235095,0.04903325000000119,9.6889702,"(8.999999999999999e-08, 0.0, 0.0, 0.0, 8.999999999999999e-08, 0.0, 0.0, 0.0, 8.999999999999999e-08)"
2025/07/05/17:44:23.744639,7359,1751712263,740439152,base_link,0.0,0.0,0.0,0.0,"(-1.0, 0.0, 0.0, 0.0, 0.0, 0.0, 0.0, 0.0, 0.0)",-0.055,0.004999999999999986,-0.113,"(1.2184696791468346e-07, 0.0, 0.0, 0.0, 1.2184696791468346e-07, 0.0, 0.0, 0.0, 1.2184696791468346e-07)",-1.3925443,1.1853556659931232e-15,9.67916355,"(8.999999999999999e-08, 0.0, 0.0, 0.0, 8.999999999999999e-08, 0.0, 0.0, 0.0, 8.999999999999999e-08)"
2025/07/05/17:44:23.826060,7360,1751712263,823728528,base_link,0.0,0.0,0.0,0.0,"(-1.0, 0.0, 0.0, 0.0, 0.0, 0.0, 0.0, 0.0, 0.0)",0.045,-0.008000000000000012,-0.098,"(1.2184696791468346e-07, 0.0, 0.0, 0.0, 1.2184696791468346e-07, 0.0, 0.0, 0.0, 1.2184696791468346e-07)",-1.36312435,0.02941995000000118,9.62032365,"(8.999999999999999e-08, 0.0, 0.0, 0.0, 8.999999999999999e-08, 0.0, 0.0, 0.0, 8.999999999999999e-08)"
2025/07/05/17:44:23.903843,7361,1751712263,901393160,base_link,0.0,0.0,0.0,0.0,"(-1.0, 0.0, 0.0, 0.0, 0.0, 0.0, 0.0, 0.0, 0.0)",0.14300000000000002,-0.02000000000000001,-0.079,"(1.2184696791468346e-07, 0.0, 0.0, 0.0, 1.2184696791468346e-07, 0.0, 0.0, 0.0, 1.2184696791468346e-07)",-1.372931,0.04903325000000117,9.58109705,"(8.999999999999999e-08, 0.0, 0.0, 0.0, 8.999999999999999e-08, 0.0, 0.0, 0.0, 8.999999999999999e-08)"
2025/07/05/17:44:24.026514,7362,1751712264,23855072,base_link,0.0,0.0,0.0,0.0,"(-1.0, 0.0, 0.0, 0.0, 0.0, 0.0, 0.0, 0.0, 0.0)",0.186,-0.022000000000000006,-0.055,"(1.2184696791468346e-07, 0.0, 0.0, 0.0, 1.2184696791468346e-07, 0.0, 0.0, 0.0, 1.2184696791468346e-07)",-1.40235095,0.09806650000000118,9.639936950000001,"(8.999999999999999e-08, 0.0, 0.0, 0.0, 8.999999999999999e-08, 0.0, 0.0, 0.0, 8.999999999999999e-08)"
2025/07/05/17:44:24.103064,7363,1751712264,101605216,base_link,0.0,0.0,0.0,0.0,"(-1.0, 0.0, 0.0, 0.0, 0.0, 0.0, 0.0, 0.0, 0.0)",0.131,-0.013000000000000008,-0.053,"(1.2184696791468346e-07, 0.0, 0.0, 0.0, 1.2184696791468346e-07, 0.0, 0.0, 0.0, 1.2184696791468346e-07)",-1.40235095,0.1863263500000012,9.6693569,"(8.999999999999999e-08, 0.0, 0.0, 0.0, 8.999999999999999e-08, 0.0, 0.0, 0.0, 8.999999999999999e-08)"
2025/07/05/17:44:24.204469,7364,1751712264,202054872,base_link,0.0,0.0,0.0,0.0,"(-1.0, 0.0, 0.0, 0.0, 0.0, 0.0, 0.0, 0.0, 0.0)",0.011,0.003999999999999991,-0.069,"(1.2184696791468346e-07, 0.0, 0.0, 0.0, 1.2184696791468346e-07, 0.0, 0.0, 0.0, 1.2184696791468346e-07)",-1.48080415,0.27458620000000117,9.67916355,"(8.999999999999999e-08, 0.0, 0.0, 0.0, 8.999999999999999e-08, 0.0, 0.0, 0.0, 8.999999999999999e-08)"
2025/07/05/17:44:24.303266,7365,1751712264,300914040,base_link,0.0,0.0,0.0,0.0,"(-1.0, 0.0, 0.0, 0.0, 0.0, 0.0, 0.0, 0.0, 0.0)",-0.092,0.01699999999999999,-0.097,"(1.2184696791468346e-07, 0.0, 0.0, 0.0, 1.2184696791468346e-07, 0.0, 0.0, 0.0, 1.2184696791468346e-07)",-1.46119085,0.1863263500000012,9.7281968,"(8.999999999999999e-08, 0.0, 0.0, 0.0, 8.999999999999999e-08, 0.0, 0.0, 0.0, 8.999999999999999e-08)"
2025/07/05/17:44:24.445417,7366,1751712264,443154464,base_link,0.0,0.0,0.0,0.0,"(-1.0, 0.0, 0.0, 0.0, 0.0, 0.0, 0.0, 0.0, 0.0)",-0.13,0.004999999999999986,-0.112,"(1.2184696791468346e-07, 0.0, 0.0, 0.0, 1.2184696791468346e-07, 0.0, 0.0, 0.0, 1.2184696791468346e-07)",-1.4513842000000001,0.029419950000001183,9.6889702,"(8.999999999999999e-08, 0.0, 0.0, 0.0, 8.999999999999999e-08, 0.0, 0.0, 0.0, 8.999999999999999e-08)"
2025/07/05/17:44:24.604328,7367,1751712264,601343312,base_link,0.0,0.0,0.0,0.0,"(-1.0, 0.0, 0.0, 0.0, 0.0, 0.0, 0.0, 0.0, 0.0)",0.022,-0.022000000000000006,-0.067,"(1.2184696791468346e-07, 0.0, 0.0, 0.0, 1.2184696791468346e-07, 0.0, 0.0, 0.0, 1.2184696791468346e-07)",-1.4121576,-0.1863263499999988,9.6301303,"(8.999999999999999e-08, 0.0, 0.0, 0.0, 8.999999999999999e-08, 0.0, 0.0, 0.0, 8.999999999999999e-08)"
2025/07/05/17:44:24.683853,7368,1751712264,679730432,base_link,0.0,0.0,0.0,0.0,"(-1.0, 0.0, 0.0, 0.0, 0.0, 0.0, 0.0, 0.0, 0.0)",0.112,-0.025000000000000005,-0.022999999999999996,"(1.2184696791468346e-07, 0.0, 0.0, 0.0, 1.2184696791468346e-07, 0.0, 0.0, 0.0, 1.2184696791468346e-07)",-1.44157755,0.03922660000000117,9.58109705,"(8.999999999999999e-08, 0.0, 0.0, 0.0, 8.999999999999999e-08, 0.0, 0.0, 0.0, 8.999999999999999e-08)"
2025/07/05/17:44:24.782905,7369,1751712264,779991832,base_link,0.0,0.0,0.0,0.0,"(-1.0, 0.0, 0.0, 0.0, 0.0, 0.0, 0.0, 0.0, 0.0)",0.192,-0.009999999999999998,0.009000000000000003,"(1.2184696791468346e-07, 0.0, 0.0, 0.0, 1.2184696791468346e-07, 0.0, 0.0, 0.0, 1.2184696791468346e-07)",-1.40235095,-0.10787314999999882,9.610517,"(8.999999999999999e-08, 0.0, 0.0, 0.0, 8.999999999999999e-08, 0.0, 0.0, 0.0, 8.999999999999999e-08)"
2025/07/05/17:44:24.904308,7370,1751712264,900865232,base_link,0.0,0.0,0.0,0.0,"(-1.0, 0.0, 0.0, 0.0, 0.0, 0.0, 0.0, 0.0, 0.0)",0.101,0.011000000000000003,0.032,"(1.2184696791468346e-07, 0.0, 0.0, 0.0, 1.2184696791468346e-07, 0.0, 0.0, 0.0, 1.2184696791468346e-07)",-1.4513842000000001,0.25497290000000117,9.7085835,"(8.999999999999999e-08, 0.0, 0.0, 0.0, 8.999999999999999e-08, 0.0, 0.0, 0.0, 8.999999999999999e-08)"
2025/07/05/17:44:25.004325,7371,1751712265,1844144,base_link,0.0,0.0,0.0,0.0,"(-1.0, 0.0, 0.0, 0.0, 0.0, 0.0, 0.0, 0.0, 0.0)",-0.007,0.019,0.002999999999999998,"(1.2184696791468346e-07, 0.0, 0.0, 0.0, 1.2184696791468346e-07, 0.0, 0.0, 0.0, 1.2184696791468346e-07)",-1.4513842000000001,0.2059396500000012,9.7281968,"(8.999999999999999e-08, 0.0, 0.0, 0.0, 8.999999999999999e-08, 0.0, 0.0, 0.0, 8.999999999999999e-08)"
2025/07/05/17:44:25.108012,7372,1751712265,101115800,base_link,0.0,0.0,0.0,0.0,"(-1.0, 0.0, 0.0, 0.0, 0.0, 0.0, 0.0, 0.0, 0.0)",-0.122,0.010999999999999996,-0.023,"(1.2184696791468346e-07, 0.0, 0.0, 0.0, 1.2184696791468346e-07, 0.0, 0.0, 0.0, 1.2184696791468346e-07)",-1.4709975,0.1961330000000012,9.7085835,"(8.999999999999999e-08, 0.0, 0.0, 0.0, 8.999999999999999e-08, 0.0, 0.0, 0.0, 8.999999999999999e-08)"
2025/07/05/17:44:25.204097,7373,1751712265,201650736,base_link,0.0,0.0,0.0,0.0,"(-1.0, 0.0, 0.0, 0.0, 0.0, 0.0, 0.0, 0.0, 0.0)",-0.147,-0.008000000000000004,-0.032,"(1.2184696791468346e-07, 0.0, 0.0, 0.0, 1.2184696791468346e-07, 0.0, 0.0, 0.0, 1.2184696791468346e-07)",-1.4317709,0.04903325000000119,9.65955025,"(8.999999999999999e-08, 0.0, 0.0, 0.0, 8.999999999999999e-08, 0.0, 0.0, 0.0, 8.999999999999999e-08)"
2025/07/05/17:44:25.262579,7374,1751712265,260574600,base_link,0.0,0.0,0.0,0.0,"(-1.0, 0.0, 0.0, 0.0, 0.0, 0.0, 0.0, 0.0, 0.0)",-0.099,-0.019000000000000003,-0.022999999999999996,"(1.2184696791468346e-07, 0.0, 0.0, 0.0, 1.2184696791468346e-07, 0.0, 0.0, 0.0, 1.2184696791468346e-07)",-1.42196425,1.1757479199668367e-15,9.60071035,"(8.999999999999999e-08, 0.0, 0.0, 0.0, 8.999999999999999e-08, 0.0, 0.0, 0.0, 8.999999999999999e-08)"
2025/07/05/17:44:25.404422,7375,1751712265,401611232,base_link,0.0,0.0,0.0,0.0,"(-1.0, 0.0, 0.0, 0.0, 0.0, 0.0, 0.0, 0.0, 0.0)",0.106,-0.022999999999999996,0.029000000000000005,"(1.2184696791468346e-07, 0.0, 0.0, 0.0, 1.2184696791468346e-07, 0.0, 0.0, 0.0, 1.2184696791468346e-07)",-1.4121576,-0.009806649999998826,9.58109705,"(8.999999999999999e-08, 0.0, 0.0, 0.0, 8.999999999999999e-08, 0.0, 0.0, 0.0, 8.999999999999999e-08)"
2025/07/05/17:44:25.561942,7376,1751712265,560120264,base_link,0.0,0.0,0.0,0.0,"(-1.0, 0.0, 0.0, 0.0, 0.0, 0.0, 0.0, 0.0, 0.0)",0.186,0.007000000000000007,0.058,"(1.2184696791468346e-07, 0.0, 0.0, 0.0, 1.2184696791468346e-07, 0.0, 0.0, 0.0, 1.2184696791468346e-07)",-1.42196425,0.1667130500000012,9.6693569,"(8.999999999999999e-08, 0.0, 0.0, 0.0, 8.999999999999999e-08, 0.0, 0.0, 0.0, 8.999999999999999e-08)"
2025/07/05/17:44:25.643756,7377,1751712265,640727264,base_link,0.0,0.0,0.0,0.0,"(-1.0, 0.0, 0.0, 0.0, 0.0, 0.0, 0.0, 0.0, 0.0)",0.1,0.018000000000000006,0.042,"(1.2184696791468346e-07, 0.0, 0.0, 0.0, 1.2184696791468346e-07, 0.0, 0.0, 0.0, 1.2184696791468346e-07)",-1.44157755,0.29419950000000117,9.71839015,"(8.999999999999999e-08, 0.0, 0.0, 0.0, 8.999999999999999e-08, 0.0, 0.0, 0.0, 8.999999999999999e-08)"
2025/07/05/17:44:25.762254,7378,1751712265,760075016,base_link,0.0,0.0,0.0,0.0,"(-1.0, 0.0, 0.0, 0.0, 0.0, 0.0, 0.0, 0.0, 0.0)",-0.08600000000000001,0.016,-0.004000000000000002,"(1.2184696791468346e-07, 0.0, 0.0, 0.0, 1.2184696791468346e-07, 0.0, 0.0, 0.0, 1.2184696791468346e-07)",-1.4513842000000001,0.27458620000000117,9.73800345,"(8.999999999999999e-08, 0.0, 0.0, 0.0, 8.999999999999999e-08, 0.0, 0.0, 0.0, 8.999999999999999e-08)"
2025/07/05/17:44:25.841986,7379,1751712265,840328016,base_link,0.0,0.0,0.0,0.0,"(-1.0, 0.0, 0.0, 0.0, 0.0, 0.0, 0.0, 0.0, 0.0)",-0.17200000000000001,0.0009999999999999966,-0.028,"(1.2184696791468346e-07, 0.0, 0.0, 0.0, 1.2184696791468346e-07, 0.0, 0.0, 0.0, 1.2184696791468346e-07)",-1.4513842000000001,0.1863263500000012,9.67916355,"(8.999999999999999e-08, 0.0, 0.0, 0.0, 8.999999999999999e-08, 0.0, 0.0, 0.0, 8.999999999999999e-08)"
2025/07/05/17:44:25.943202,7380,1751712265,939827648,base_link,0.0,0.0,0.0,0.0,"(-1.0, 0.0, 0.0, 0.0, 0.0, 0.0, 0.0, 0.0, 0.0)",-0.148,-0.018000000000000006,-0.028999999999999998,"(1.2184696791468346e-07, 0.0, 0.0, 0.0, 1.2184696791468346e-07, 0.0, 0.0, 0.0, 1.2184696791468346e-07)",-1.4121576,1.1745469517135507e-15,9.5909037,"(8.999999999999999e-08, 0.0, 0.0, 0.0, 8.999999999999999e-08, 0.0, 0.0, 0.0, 8.999999999999999e-08)"
2025/07/05/17:44:26.042394,7381,1751712266,40521768,base_link,0.0,0.0,0.0,0.0,"(-1.0, 0.0, 0.0, 0.0, 0.0, 0.0, 0.0, 0.0, 0.0)",0.005,-0.026000000000000002,0.002000000000000003,"(1.2184696791468346e-07, 0.0, 0.0, 0.0, 1.2184696791468346e-07, 0.0, 0.0, 0.0, 1.2184696791468346e-07)",-1.3925443,-0.07845319999999883,9.56148375,"(8.999999999999999e-08, 0.0, 0.0, 0.0, 8.999999999999999e-08, 0.0, 0.0, 0.0, 8.999999999999999e-08)"
2025/07/05/17:44:26.162350,7382,1751712266,160155008,base_link,0.0,0.0,0.0,0.0,"(-1.0, 0.0, 0.0, 0.0, 0.0, 0.0, 0.0, 0.0, 0.0)",0.187,-0.010999999999999994,0.049,"(1.2184696791468346e-07, 0.0, 0.0, 0.0, 1.2184696791468346e-07, 0.0, 0.0, 0.0, 1.2184696791468346e-07)",-1.4121576,0.03922660000000117,9.6301303,"(8.999999999999999e-08, 0.0, 0.0, 0.0, 8.999999999999999e-08, 0.0, 0.0, 0.0, 8.999999999999999e-08)"
2025/07/05/17:44:26.243093,7383,1751712266,240560008,base_link,0.0,0.0,0.0,0.0,"(-1.0, 0.0, 0.0, 0.0, 0.0, 0.0, 0.0, 0.0, 0.0)",0.20800000000000002,0.006000000000000007,0.058,"(1.2184696791468346e-07, 0.0, 0.0, 0.0, 1.2184696791468346e-07, 0.0, 0.0, 0.0, 1.2184696791468346e-07)",-1.4317709,0.1765197000000012,9.6889702,"(8.999999999999999e-08, 0.0, 0.0, 0.0, 8.999999999999999e-08, 0.0, 0.0, 0.0, 8.999999999999999e-08)"
2025/07/05/17:44:26.341944,7384,1751712266,340578896,base_link,0.0,0.0,0.0,0.0,"(-1.0, 0.0, 0.0, 0.0, 0.0, 0.0, 0.0, 0.0, 0.0)",0.096,0.019000000000000003,0.038,"(1.2184696791468346e-07, 0.0, 0.0, 0.0, 1.2184696791468346e-07, 0.0, 0.0, 0.0, 1.2184696791468346e-07)",-1.44157755,0.33342610000000117,9.7281968,"(8.999999999999999e-08, 0.0, 0.0, 0.0, 8.999999999999999e-08, 0.0, 0.0, 0.0, 8.999999999999999e-08)"
2025/07/05/17:44:26.503966,7385,1751712266,501422880,base_link,0.0,0.0,0.0,0.0,"(-1.0, 0.0, 0.0, 0.0, 0.0, 0.0, 0.0, 0.0, 0.0)",-0.154,0.0049999999999999975,-0.023,"(1.2184696791468346e-07, 0.0, 0.0, 0.0, 1.2184696791468346e-07, 0.0, 0.0, 0.0, 1.2184696791468346e-07)",-1.44157755,0.2353596000000012,9.6693569,"(8.999999999999999e-08, 0.0, 0.0, 0.0, 8.999999999999999e-08, 0.0, 0.0, 0.0, 8.999999999999999e-08)"
2025/07/05/17:44:26.582053,7386,1751712266,580392744,base_link,0.0,0.0,0.0,0.0,"(-1.0, 0.0, 0.0, 0.0, 0.0, 0.0, 0.0, 0.0, 0.0)",-0.17500000000000002,-0.011000000000000003,-0.031,"(1.2184696791468346e-07, 0.0, 0.0, 0.0, 1.2184696791468346e-07, 0.0, 0.0, 0.0, 1.2184696791468346e-07)",-1.42196425,0.08825985000000117,9.60071035,"(8.999999999999999e-08, 0.0, 0.0, 0.0, 8.999999999999999e-08, 0.0, 0.0, 0.0, 8.999999999999999e-08)"
2025/07/05/17:44:26.663105,7387,1751712266,661002120,base_link,0.0,0.0,0.0,0.0,"(-1.0, 0.0, 0.0, 0.0, 0.0, 0.0, 0.0, 0.0, 0.0)",-0.089,-0.024000000000000004,-0.018,"(1.2184696791468346e-07, 0.0, 0.0, 0.0, 1.2184696791468346e-07, 0.0, 0.0, 0.0, 1.2184696791468346e-07)",-1.3925443,-0.019613299999998828,9.56148375,"(8.999999999999999e-08, 0.0, 0.0, 0.0, 8.999999999999999e-08, 0.0, 0.0, 0.0, 8.999999999999999e-08)"
2025/07/05/17:44:26.782515,7388,1751712266,779897312,base_link,0.0,0.0,0.0,0.0,"(-1.0, 0.0, 0.0, 0.0, 0.0, 0.0, 0.0, 0.0, 0.0)",0.112,-0.020999999999999998,0.027000000000000003,"(1.2184696791468346e-07, 0.0, 0.0, 0.0, 1.2184696791468346e-07, 0.0, 0.0, 0.0, 1.2184696791468346e-07)",-1.4121576,0.009806650000001174,9.58109705,"(8.999999999999999e-08, 0.0, 0.0, 0.0, 8.999999999999999e-08, 0.0, 0.0, 0.0, 8.999999999999999e-08)"
2025/07/05/17:44:26.883231,7389,1751712266,880560504,base_link,0.0,0.0,0.0,0.0,"(-1.0, 0.0, 0.0, 0.0, 0.0, 0.0, 0.0, 0.0, 0.0)",0.198,5.7558399559925604e-18,0.047,"(1.2184696791468346e-07, 0.0, 0.0, 0.0, 1.2184696791468346e-07, 0.0, 0.0, 0.0, 1.2184696791468346e-07)",-1.42196425,0.1372931000000012,9.67916355,"(8.999999999999999e-08, 0.0, 0.0, 0.0, 8.999999999999999e-08, 0.0, 0.0, 0.0, 8.999999999999999e-08)"
2025/07/05/17:44:27.004387,7390,1751712267,1470392,base_link,0.0,0.0,0.0,0.0,"(-1.0, 0.0, 0.0, 0.0, 0.0, 0.0, 0.0, 0.0, 0.0)",0.098,0.019000000000000003,0.028999999999999998,"(1.2184696791468346e-07, 0.0, 0.0, 0.0, 1.2184696791468346e-07, 0.0, 0.0, 0.0, 1.2184696791468346e-07)",-1.44157755,0.35303940000000117,9.73800345,"(8.999999999999999e-08, 0.0, 0.0, 0.0, 8.999999999999999e-08, 0.0, 0.0, 0.0, 8.999999999999999e-08)"
2025/07/05/17:44:27.084127,7391,1751712267,79885024,base_link,0.0,0.0,0.0,0.0,"(-1.0, 0.0, 0.0, 0.0, 0.0, 0.0, 0.0, 0.0, 0.0)",-0.03,0.017,-0.0010000000000000022,"(1.2184696791468346e-07, 0.0, 0.0, 0.0, 1.2184696791468346e-07, 0.0, 0.0, 0.0, 1.2184696791468346e-07)",-1.4513842000000001,0.3040061500000012,9.73800345,"(8.999999999999999e-08, 0.0, 0.0, 0.0, 8.999999999999999e-08, 0.0, 0.0, 0.0, 8.999999999999999e-08)"
2025/07/05/17:44:27.183032,7392,1751712267,180293024,base_link,0.0,0.0,0.0,0.0,"(-1.0, 0.0, 0.0, 0.0, 0.0, 0.0, 0.0, 0.0, 0.0)",-0.156,-3.796405077356795e-18,-0.031,"(1.2184696791468346e-07, 0.0, 0.0, 0.0, 1.2184696791468346e-07, 0.0, 0.0, 0.0, 1.2184696791468346e-07)",-1.4317709,0.2059396500000012,9.67916355,"(8.999999999999999e-08, 0.0, 0.0, 0.0, 8.999999999999999e-08, 0.0, 0.0, 0.0, 8.999999999999999e-08)"
2025/07/05/17:44:27.282750,7393,1751712267,280302680,base_link,0.0,0.0,0.0,0.0,"(-1.0, 0.0, 0.0, 0.0, 0.0, 0.0, 0.0, 0.0, 0.0)",-0.133,-0.019000000000000003,-0.027999999999999997,"(1.2184696791468346e-07, 0.0, 0.0, 0.0, 1.2184696791468346e-07, 0.0, 0.0, 0.0, 1.2184696791468346e-07)",-1.40235095,0.05883990000000117,9.58109705,"(8.999999999999999e-08, 0.0, 0.0, 0.0, 8.999999999999999e-08, 0.0, 0.0, 0.0, 8.999999999999999e-08)"
2025/07/05/17:44:27.382785,7394,1751712267,379887824,base_link,0.0,0.0,0.0,0.0,"(-1.0, 0.0, 0.0, 0.0, 0.0, 0.0, 0.0, 0.0, 0.0)",0.027,-0.026000000000000002,3.1840816777831186e-18,"(1.2184696791468346e-07, 0.0, 0.0, 0.0, 1.2184696791468346e-07, 0.0, 0.0, 0.0, 1.2184696791468346e-07)",-1.3925443,-0.07845319999999883,9.56148375,"(8.999999999999999e-08, 0.0, 0.0, 0.0, 8.999999999999999e-08, 0.0, 0.0, 0.0, 8.999999999999999e-08)"
2025/07/05/17:44:27.562347,7395,1751712267,560057880,base_link,0.0,0.0,0.0,0.0,"(-1.0, 0.0, 0.0, 0.0, 0.0, 0.0, 0.0, 0.0, 0.0)",0.18,0.008000000000000005,0.039,"(1.2184696791468346e-07, 0.0, 0.0, 0.0, 1.2184696791468346e-07, 0.0, 0.0, 0.0, 1.2184696791468346e-07)",-1.42196425,0.1765197000000012,9.7085835,"(8.999999999999999e-08, 0.0, 0.0, 0.0, 8.999999999999999e-08, 0.0, 0.0, 0.0, 8.999999999999999e-08)"
2025/07/05/17:44:27.662625,7396,1751712267,660359000,base_link,0.0,0.0,0.0,0.0,"(-1.0, 0.0, 0.0, 0.0, 0.0, 0.0, 0.0, 0.0, 0.0)",0.07200000000000001,0.019000000000000003,0.018,"(1.2184696791468346e-07, 0.0, 0.0, 0.0, 1.2184696791468346e-07, 0.0, 0.0, 0.0, 1.2184696791468346e-07)",-1.44157755,0.3432327500000012,9.7674234,"(8.999999999999999e-08, 0.0, 0.0, 0.0, 8.999999999999999e-08, 0.0, 0.0, 0.0, 8.999999999999999e-08)"
2025/07/05/17:44:27.762705,7397,1751712267,760458656,base_link,0.0,0.0,0.0,0.0,"(-1.0, 0.0, 0.0, 0.0, 0.0, 0.0, 0.0, 0.0, 0.0)",-0.074,0.009,-0.016,"(1.2184696791468346e-07, 0.0, 0.0, 0.0, 1.2184696791468346e-07, 0.0, 0.0, 0.0, 1.2184696791468346e-07)",-1.4513842000000001,0.25497290000000117,9.71839015,"(8.999999999999999e-08, 0.0, 0.0, 0.0, 8.999999999999999e-08, 0.0, 0.0, 0.0, 8.999999999999999e-08)"
2025/07/05/17:44:27.862881,7398,1751712267,860347544,base_link,0.0,0.0,0.0,0.0,"(-1.0, 0.0, 0.0, 0.0, 0.0, 0.0, 0.0, 0.0, 0.0)",-0.14200000000000002,-0.012000000000000004,-0.03,"(1.2184696791468346e-07, 0.0, 0.0, 0.0, 1.2184696791468346e-07, 0.0, 0.0, 0.0, 1.2184696791468346e-07)",-1.4121576,0.1274864500000012,9.6301303,"(8.999999999999999e-08, 0.0, 0.0, 0.0, 8.999999999999999e-08, 0.0, 0.0, 0.0, 8.999999999999999e-08)"
2025/07/05/17:44:27.983279,7399,1751712267,980060688,base_link,0.0,0.0,0.0,0.0,"(-1.0, 0.0, 0.0, 0.0, 0.0, 0.0, 0.0, 0.0, 0.0)",-0.031,-0.024,-0.008999999999999998,"(1.2184696791468346e-07, 0.0, 0.0, 0.0, 1.2184696791468346e-07, 0.0, 0.0, 0.0, 1.2184696791468346e-07)",-1.38273765,0.019613300000001173,9.56148375,"(8.999999999999999e-08, 0.0, 0.0, 0.0, 8.999999999999999e-08, 0.0, 0.0, 0.0, 8.999999999999999e-08)"
2025/07/05/17:44:28.082962,7400,1751712268,80380832,base_link,0.0,0.0,0.0,0.0,"(-1.0, 0.0, 0.0, 0.0, 0.0, 0.0, 0.0, 0.0, 0.0)",0.106,-0.010999999999999998,0.021,"(1.2184696791468346e-07, 0.0, 0.0, 0.0, 1.2184696791468346e-07, 0.0, 0.0, 0.0, 1.2184696791468346e-07)",-1.40235095,0.029419950000001176,9.5909037,"(8.999999999999999e-08, 0.0, 0.0, 0.0, 8.999999999999999e-08, 0.0, 0.0, 0.0, 8.999999999999999e-08)"
2025/07/05/17:44:28.182853,7401,1751712268,180446832,base_link,0.0,0.0,0.0,0.0,"(-1.0, 0.0, 0.0, 0.0, 0.0, 0.0, 0.0, 0.0, 0.0)",0.151,0.009000000000000005,0.031,"(1.2184696791468346e-07, 0.0, 0.0, 0.0, 1.2184696791468346e-07, 0.0, 0.0, 0.0, 1.2184696791468346e-07)",-1.4317709,0.1667130500000012,9.7085835,"(8.999999999999999e-08, 0.0, 0.0, 0.0, 8.999999999999999e-08, 0.0, 0.0, 0.0, 8.999999999999999e-08)"
2025/07/05/17:44:28.262619,7402,1751712268,260739440,base_link,0.0,0.0,0.0,0.0,"(-1.0, 0.0, 0.0, 0.0, 0.0, 0.0, 0.0, 0.0, 0.0)",0.093,0.017000000000000005,0.018999999999999996,"(1.2184696791468346e-07, 0.0, 0.0, 0.0, 1.2184696791468346e-07, 0.0, 0.0, 0.0, 1.2184696791468346e-07)",-1.4317709,0.25497290000000117,9.75761675,"(8.999999999999999e-08, 0.0, 0.0, 0.0, 8.999999999999999e-08, 0.0, 0.0, 0.0, 8.999999999999999e-08)"
2025/07/05/17:44:28.404251,7403,1751712268,401922816,base_link,0.0,0.0,0.0,0.0,"(-1.0, 0.0, 0.0, 0.0, 0.0, 0.0, 0.0, 0.0, 0.0)",-0.08,0.001999999999999998,-0.019,"(1.2184696791468346e-07, 0.0, 0.0, 0.0, 1.2184696791468346e-07, 0.0, 0.0, 0.0, 1.2184696791468346e-07)",-1.44157755,0.2255529500000012,9.7281968,"(8.999999999999999e-08, 0.0, 0.0, 0.0, 8.999999999999999e-08, 0.0, 0.0, 0.0, 8.999999999999999e-08)"
2025/07/05/17:44:28.582592,7404,1751712268,580273008,base_link,0.0,0.0,0.0,0.0,"(-1.0, 0.0, 0.0, 0.0, 0.0, 0.0, 0.0, 0.0, 0.0)",-0.04,-0.021,-0.007999999999999998,"(1.2184696791468346e-07, 0.0, 0.0, 0.0, 1.2184696791468346e-07, 0.0, 0.0, 0.0, 1.2184696791468346e-07)",-1.38273765,0.029419950000001173,9.5712904,"(8.999999999999999e-08, 0.0, 0.0, 0.0, 8.999999999999999e-08, 0.0, 0.0, 0.0, 8.999999999999999e-08)"
2025/07/05/17:44:28.682967,7405,1751712268,680761008,base_link,0.0,0.0,0.0,0.0,"(-1.0, 0.0, 0.0, 0.0, 0.0, 0.0, 0.0, 0.0, 0.0)",0.092,-0.013,0.021,"(1.2184696791468346e-07, 0.0, 0.0, 0.0, 1.2184696791468346e-07, 0.0, 0.0, 0.0, 1.2184696791468346e-07)",-1.38273765,0.03922660000000117,9.5909037,"(8.999999999999999e-08, 0.0, 0.0, 0.0, 8.999999999999999e-08, 0.0, 0.0, 0.0, 8.999999999999999e-08)"
2025/07/05/17:44:28.782655,7406,1751712268,780489008,base_link,0.0,0.0,0.0,0.0,"(-1.0, 0.0, 0.0, 0.0, 0.0, 0.0, 0.0, 0.0, 0.0)",0.14300000000000002,0.004000000000000004,0.035,"(1.2184696791468346e-07, 0.0, 0.0, 0.0, 1.2184696791468346e-07, 0.0, 0.0, 0.0, 1.2184696791468346e-07)",-1.4121576,0.1470997500000012,9.65955025,"(8.999999999999999e-08, 0.0, 0.0, 0.0, 8.999999999999999e-08, 0.0, 0.0, 0.0, 8.999999999999999e-08)"
2025/07/05/17:44:28.862382,7407,1751712268,860723384,base_link,0.0,0.0,0.0,0.0,"(-1.0, 0.0, 0.0, 0.0, 0.0, 0.0, 0.0, 0.0, 0.0)",0.093,0.012000000000000004,0.022,"(1.2184696791468346e-07, 0.0, 0.0, 0.0, 1.2184696791468346e-07, 0.0, 0.0, 0.0, 1.2184696791468346e-07)",-1.42196425,0.2647795500000012,9.73800345,"(8.999999999999999e-08, 0.0, 0.0, 0.0, 8.999999999999999e-08, 0.0, 0.0, 0.0, 8.999999999999999e-08)"
2025/07/05/17:44:28.983708,7408,1751712268,979994040,base_link,0.0,0.0,0.0,0.0,"(-1.0, 0.0, 0.0, 0.0, 0.0, 0.0, 0.0, 0.0, 0.0)",-0.055,0.004999999999999998,-0.012,"(1.2184696791468346e-07, 0.0, 0.0, 0.0, 1.2184696791468346e-07, 0.0, 0.0, 0.0, 1.2184696791468346e-07)",-1.42196425,0.2451662500000012,9.71839015,"(8.999999999999999e-08, 0.0, 0.0, 0.0, 8.999999999999999e-08, 0.0, 0.0, 0.0, 8.999999999999999e-08)"
2025/07/05/17:44:29.062427,7409,1751712269,60293160,base_link,0.0,0.0,0.0,0.0,"(-1.0, 0.0, 0.0, 0.0, 0.0, 0.0, 0.0, 0.0, 0.0)",-0.115,-0.006000000000000003,-0.024,"(1.2184696791468346e-07, 0.0, 0.0, 0.0, 1.2184696791468346e-07, 0.0, 0.0, 0.0, 1.2184696791468346e-07)",-1.4121576,0.1569064000000012,9.6693569,"(8.999999999999999e-08, 0.0, 0.0, 0.0, 8.999999999999999e-08, 0.0, 0.0, 0.0, 8.999999999999999e-08)"
2025/07/05/17:44:29.162334,7410,1751712269,160054160,base_link,0.0,0.0,0.0,0.0,"(-1.0, 0.0, 0.0, 0.0, 0.0, 0.0, 0.0, 0.0, 0.0)",-0.07,-0.017,-0.011999999999999999,"(1.2184696791468346e-07, 0.0, 0.0, 0.0, 1.2184696791468346e-07, 0.0, 0.0, 0.0, 1.2184696791468346e-07)",-1.40235095,0.06864655000000118,9.5909037,"(8.999999999999999e-08, 0.0, 0.0, 0.0, 8.999999999999999e-08, 0.0, 0.0, 0.0, 8.999999999999999e-08)"
2025/07/05/17:44:29.242367,7411,1751712269,240696160,base_link,0.0,0.0,0.0,0.0,"(-1.0, 0.0, 0.0, 0.0, 0.0, 0.0, 0.0, 0.0, 0.0)",0.035,-0.014999999999999998,0.009000000000000003,"(1.2184696791468346e-07, 0.0, 0.0, 0.0, 1.2184696791468346e-07, 0.0, 0.0, 0.0, 1.2184696791468346e-07)",-1.3925443,1.1745469517135507e-15,9.5909037,"(8.999999999999999e-08, 0.0, 0.0, 0.0, 8.999999999999999e-08, 0.0, 0.0, 0.0, 8.999999999999999e-08)"
2025/07/05/17:44:29.362182,7412,1751712269,360115632,base_link,0.0,0.0,0.0,0.0,"(-1.0, 0.0, 0.0, 0.0, 0.0, 0.0, 0.0, 0.0, 0.0)",0.14200000000000002,0.0020000000000000044,0.036000000000000004,"(1.2184696791468346e-07, 0.0, 0.0, 0.0, 1.2184696791468346e-07, 0.0, 0.0, 0.0, 1.2184696791468346e-07)",-1.4121576,0.1372931000000012,9.639936950000001,"(8.999999999999999e-08, 0.0, 0.0, 0.0, 8.999999999999999e-08, 0.0, 0.0, 0.0, 8.999999999999999e-08)"
2025/07/05/17:44:29.542631,7413,1751712269,539995776,base_link,0.0,0.0,0.0,0.0,"(-1.0, 0.0, 0.0, 0.0, 0.0, 0.0, 0.0, 0.0, 0.0)",0.003,0.009000000000000001,0.0019999999999999987,"(1.2184696791468346e-07, 0.0, 0.0, 0.0, 1.2184696791468346e-07, 0.0, 0.0, 0.0, 1.2184696791468346e-07)",-1.4317709,0.3040061500000012,9.73800345,"(8.999999999999999e-08, 0.0, 0.0, 0.0, 8.999999999999999e-08, 0.0, 0.0, 0.0, 8.999999999999999e-08)"
2025/07/05/17:44:29.626145,7414,1751712269,624161664,base_link,0.0,0.0,0.0,0.0,"(-1.0, 0.0, 0.0, 0.0, 0.0, 0.0, 0.0, 0.0, 0.0)",-0.093,-0.002000000000000002,-0.018000000000000002,"(1.2184696791468346e-07, 0.0, 0.0, 0.0, 1.2184696791468346e-07, 0.0, 0.0, 0.0, 1.2184696791468346e-07)",-1.4317709,0.2157463000000012,9.69877685,"(8.999999999999999e-08, 0.0, 0.0, 0.0, 8.999999999999999e-08, 0.0, 0.0, 0.0, 8.999999999999999e-08)"
2025/07/05/17:44:29.705160,7415,1751712269,701890320,base_link,0.0,0.0,0.0,0.0,"(-1.0, 0.0, 0.0, 0.0, 0.0, 0.0, 0.0, 0.0, 0.0)",-0.123,-0.013000000000000005,-0.023,"(1.2184696791468346e-07, 0.0, 0.0, 0.0, 1.2184696791468346e-07, 0.0, 0.0, 0.0, 1.2184696791468346e-07)",-1.4121576,0.11767980000000118,9.6301303,"(8.999999999999999e-08, 0.0, 0.0, 0.0, 8.999999999999999e-08, 0.0, 0.0, 0.0, 8.999999999999999e-08)"
2025/07/05/17:44:29.804064,7416,1751712269,801570184,base_link,0.0,0.0,0.0,0.0,"(-1.0, 0.0, 0.0, 0.0, 0.0, 0.0, 0.0, 0.0, 0.0)",-0.034,-0.02,-0.0029999999999999975,"(1.2184696791468346e-07, 0.0, 0.0, 0.0, 1.2184696791468346e-07, 0.0, 0.0, 0.0, 1.2184696791468346e-07)",-1.38273765,0.029419950000001173,9.5712904,"(8.999999999999999e-08, 0.0, 0.0, 0.0, 8.999999999999999e-08, 0.0, 0.0, 0.0, 8.999999999999999e-08)"
2025/07/05/17:44:29.882517,7417,1751712269,880716184,base_link,0.0,0.0,0.0,0.0,"(-1.0, 0.0, 0.0, 0.0, 0.0, 0.0, 0.0, 0.0, 0.0)",0.077,-0.012999999999999998,0.023,"(1.2184696791468346e-07, 0.0, 0.0, 0.0, 1.2184696791468346e-07, 0.0, 0.0, 0.0, 1.2184696791468346e-07)",-1.38273765,0.009806650000001174,9.5909037,"(8.999999999999999e-08, 0.0, 0.0, 0.0, 8.999999999999999e-08, 0.0, 0.0, 0.0, 8.999999999999999e-08)"
2025/07/05/17:44:30.004249,7418,1751712270,1831072,base_link,0.0,0.0,0.0,0.0,"(-1.0, 0.0, 0.0, 0.0, 0.0, 0.0, 0.0, 0.0, 0.0)",0.148,0.008000000000000005,0.041,"(1.2184696791468346e-07, 0.0, 0.0, 0.0, 1.2184696791468346e-07, 0.0, 0.0, 0.0, 1.2184696791468346e-07)",-1.42196425,0.1863263500000012,9.6889702,"(8.999999999999999e-08, 0.0, 0.0, 0.0, 8.999999999999999e-08, 0.0, 0.0, 0.0, 8.999999999999999e-08)"
2025/07/05/17:44:30.082152,7419,1751712270,80022192,base_link,0.0,0.0,0.0,0.0,"(-1.0, 0.0, 0.0, 0.0, 0.0, 0.0, 0.0, 0.0, 0.0)",0.095,0.014000000000000004,0.027,"(1.2184696791468346e-07, 0.0, 0.0, 0.0, 1.2184696791468346e-07, 0.0, 0.0, 0.0, 1.2184696791468346e-07)",-1.4317709,0.29419950000000117,9.71839015,"(8.999999999999999e-08, 0.0, 0.0, 0.0, 8.999999999999999e-08, 0.0, 0.0, 0.0, 8.999999999999999e-08)"
2025/07/05/17:44:30.182479,7420,1751712270,180429192,base_link,0.0,0.0,0.0,0.0,"(-1.0, 0.0, 0.0, 0.0, 0.0, 0.0, 0.0, 0.0, 0.0)",-0.033,0.007,-0.002000000000000001,"(1.2184696791468346e-07, 0.0, 0.0, 0.0, 1.2184696791468346e-07, 0.0, 0.0, 0.0, 1.2184696791468346e-07)",-1.42196425,0.2843928500000012,9.71839015,"(8.999999999999999e-08, 0.0, 0.0, 0.0, 8.999999999999999e-08, 0.0, 0.0, 0.0, 8.999999999999999e-08)"
2025/07/05/17:44:30.282842,7421,1751712270,280627192,base_link,0.0,0.0,0.0,0.0,"(-1.0, 0.0, 0.0, 0.0, 0.0, 0.0, 0.0, 0.0, 0.0)",-0.113,-0.010000000000000002,-0.018000000000000002,"(1.2184696791468346e-07, 0.0, 0.0, 0.0, 1.2184696791468346e-07, 0.0, 0.0, 0.0, 1.2184696791468346e-07)",-1.42196425,0.1569064000000012,9.6301303,"(8.999999999999999e-08, 0.0, 0.0, 0.0, 8.999999999999999e-08, 0.0, 0.0, 0.0, 8.999999999999999e-08)"
2025/07/05/17:44:30.362967,7422,1751712270,361117312,base_link,0.0,0.0,0.0,0.0,"(-1.0, 0.0, 0.0, 0.0, 0.0, 0.0, 0.0, 0.0, 0.0)",-0.08600000000000001,-0.02,-0.009999999999999998,"(1.2184696791468346e-07, 0.0, 0.0, 0.0, 1.2184696791468346e-07, 0.0, 0.0, 0.0, 1.2184696791468346e-07)",-1.40235095,0.07845320000000117,9.5909037,"(8.999999999999999e-08, 0.0, 0.0, 0.0, 8.999999999999999e-08, 0.0, 0.0, 0.0, 8.999999999999999e-08)"
2025/07/05/17:44:30.542085,7423,1751712270,540154480,base_link,0.0,0.0,0.0,0.0,"(-1.0, 0.0, 0.0, 0.0, 0.0, 0.0, 0.0, 0.0, 0.0)",0.10300000000000001,-0.001999999999999996,0.032,"(1.2184696791468346e-07, 0.0, 0.0, 0.0, 1.2184696791468346e-07, 0.0, 0.0, 0.0, 1.2184696791468346e-07)",-1.40235095,0.07845320000000118,9.65955025,"(8.999999999999999e-08, 0.0, 0.0, 0.0, 8.999999999999999e-08, 0.0, 0.0, 0.0, 8.999999999999999e-08)"
2025/07/05/17:44:30.623438,7424,1751712270,621699392,base_link,0.0,0.0,0.0,0.0,"(-1.0, 0.0, 0.0, 0.0, 0.0, 0.0, 0.0, 0.0, 0.0)",0.113,0.011000000000000003,0.034,"(1.2184696791468346e-07, 0.0, 0.0, 0.0, 1.2184696791468346e-07, 0.0, 0.0, 0.0, 1.2184696791468346e-07)",-1.42196425,0.1961330000000012,9.69877685,"(8.999999999999999e-08, 0.0, 0.0, 0.0, 8.999999999999999e-08, 0.0, 0.0, 0.0, 8.999999999999999e-08)"
2025/07/05/17:44:30.742798,7425,1751712270,739949304,base_link,0.0,0.0,0.0,0.0,"(-1.0, 0.0, 0.0, 0.0, 0.0, 0.0, 0.0, 0.0, 0.0)",0.023,0.011000000000000001,0.009,"(1.2184696791468346e-07, 0.0, 0.0, 0.0, 1.2184696791468346e-07, 0.0, 0.0, 0.0, 1.2184696791468346e-07)",-1.42196425,0.2451662500000012,9.7281968,"(8.999999999999999e-08, 0.0, 0.0, 0.0, 8.999999999999999e-08, 0.0, 0.0, 0.0, 8.999999999999999e-08)"
2025/07/05/17:44:30.845062,7426,1751712270,843027704,base_link,0.0,0.0,0.0,0.0,"(-1.0, 0.0, 0.0, 0.0, 0.0, 0.0, 0.0, 0.0, 0.0)",-0.066,-0.005000000000000001,-0.009000000000000001,"(1.2184696791468346e-07, 0.0, 0.0, 0.0, 1.2184696791468346e-07, 0.0, 0.0, 0.0, 1.2184696791468346e-07)",-1.42196425,0.2059396500000012,9.65955025,"(8.999999999999999e-08, 0.0, 0.0, 0.0, 8.999999999999999e-08, 0.0, 0.0, 0.0, 8.999999999999999e-08)"
2025/07/05/17:44:30.962863,7427,1751712270,960386504,base_link,0.0,0.0,0.0,0.0,"(-1.0, 0.0, 0.0, 0.0, 0.0, 0.0, 0.0, 0.0, 0.0)",-0.053,-0.02,-0.0039999999999999975,"(1.2184696791468346e-07, 0.0, 0.0, 0.0, 1.2184696791468346e-07, 0.0, 0.0, 0.0, 1.2184696791468346e-07)",-1.3925443,0.08825985000000117,9.58109705,"(8.999999999999999e-08, 0.0, 0.0, 0.0, 8.999999999999999e-08, 0.0, 0.0, 0.0, 8.999999999999999e-08)"
2025/07/05/17:44:31.062808,7428,1751712271,60194504,base_link,0.0,0.0,0.0,0.0,"(-1.0, 0.0, 0.0, 0.0, 0.0, 0.0, 0.0, 0.0, 0.0)",0.04,-0.013999999999999999,0.014000000000000002,"(1.2184696791468346e-07, 0.0, 0.0, 0.0, 1.2184696791468346e-07, 0.0, 0.0, 0.0, 1.2184696791468346e-07)",-1.40235095,0.03922660000000117,9.610517,"(8.999999999999999e-08, 0.0, 0.0, 0.0, 8.999999999999999e-08, 0.0, 0.0, 0.0, 8.999999999999999e-08)"
2025/07/05/17:44:31.162288,7429,1751712271,160519112,base_link,0.0,0.0,0.0,0.0,"(-1.0, 0.0, 0.0, 0.0, 0.0, 0.0, 0.0, 0.0, 0.0)",0.094,0.0040000000000000036,0.028,"(1.2184696791468346e-07, 0.0, 0.0, 0.0, 1.2184696791468346e-07, 0.0, 0.0, 0.0, 1.2184696791468346e-07)",-1.40235095,0.1470997500000012,9.6889702,"(8.999999999999999e-08, 0.0, 0.0, 0.0, 8.999999999999999e-08, 0.0, 0.0, 0.0, 8.999999999999999e-08)"
2025/07/05/17:44:31.266768,7430,1751712271,260344976,base_link,0.0,0.0,0.0,0.0,"(-1.0, 0.0, 0.0, 0.0, 0.0, 0.0, 0.0, 0.0, 0.0)",0.064,0.015000000000000001,0.018,"(1.2184696791468346e-07, 0.0, 0.0, 0.0, 1.2184696791468346e-07, 0.0, 0.0, 0.0, 1.2184696791468346e-07)",-1.4317709,0.2353596000000012,9.7478101,"(8.999999999999999e-08, 0.0, 0.0, 0.0, 8.999999999999999e-08, 0.0, 0.0, 0.0, 8.999999999999999e-08)"
2025/07/05/17:44:31.342451,7431,1751712271,340506976,base_link,0.0,0.0,0.0,0.0,"(-1.0, 0.0, 0.0, 0.0, 0.0, 0.0, 0.0, 0.0, 0.0)",-0.002,0.01,0.0009999999999999987,"(1.2184696791468346e-07, 0.0, 0.0, 0.0, 1.2184696791468346e-07, 0.0, 0.0, 0.0, 1.2184696791468346e-07)",-1.4317709,0.25497290000000117,9.7281968,"(8.999999999999999e-08, 0.0, 0.0, 0.0, 8.999999999999999e-08, 0.0, 0.0, 0.0, 8.999999999999999e-08)"
2025/07/05/17:44:31.522890,7432,1751712271,521190728,base_link,0.0,0.0,0.0,0.0,"(-1.0, 0.0, 0.0, 0.0, 0.0, 0.0, 0.0, 0.0, 0.0)",-0.048,-0.017,-0.009999999999999998,"(1.2184696791468346e-07, 0.0, 0.0, 0.0, 1.2184696791468346e-07, 0.0, 0.0, 0.0, 1.2184696791468346e-07)",-1.40235095,0.09806650000000117,9.58109705,"(8.999999999999999e-08, 0.0, 0.0, 0.0, 8.999999999999999e-08, 0.0, 0.0, 0.0, 8.999999999999999e-08)"
2025/07/05/17:44:31.604345,7433,1751712271,602256872,base_link,0.0,0.0,0.0,0.0,"(-1.0, 0.0, 0.0, 0.0, 0.0, 0.0, 0.0, 0.0, 0.0)",0.016,-0.017,0.0030000000000000022,"(1.2184696791468346e-07, 0.0, 0.0, 0.0, 1.2184696791468346e-07, 0.0, 0.0, 0.0, 1.2184696791468346e-07)",-1.3925443,0.06864655000000118,9.58109705,"(8.999999999999999e-08, 0.0, 0.0, 0.0, 8.999999999999999e-08, 0.0, 0.0, 0.0, 8.999999999999999e-08)"
2025/07/05/17:44:31.683404,7434,1751712271,682029872,base_link,0.0,0.0,0.0,0.0,"(-1.0, 0.0, 0.0, 0.0, 0.0, 0.0, 0.0, 0.0, 0.0)",0.075,-0.006999999999999998,0.017,"(1.2184696791468346e-07, 0.0, 0.0, 0.0, 1.2184696791468346e-07, 0.0, 0.0, 0.0, 1.2184696791468346e-07)",-1.4121576,0.07845320000000118,9.639936950000001,"(8.999999999999999e-08, 0.0, 0.0, 0.0, 8.999999999999999e-08, 0.0, 0.0, 0.0, 8.999999999999999e-08)"
2025/07/05/17:44:31.804359,7435,1751712271,801978872,base_link,0.0,0.0,0.0,0.0,"(-1.0, 0.0, 0.0, 0.0, 0.0, 0.0, 0.0, 0.0, 0.0)",0.074,0.009000000000000003,0.019,"(1.2184696791468346e-07, 0.0, 0.0, 0.0, 1.2184696791468346e-07, 0.0, 0.0, 0.0, 1.2184696791468346e-07)",-1.4317709,0.2255529500000012,9.7085835,"(8.999999999999999e-08, 0.0, 0.0, 0.0, 8.999999999999999e-08, 0.0, 0.0, 0.0, 8.999999999999999e-08)"
2025/07/05/17:44:31.862241,7436,1751712271,860634872,base_link,0.0,0.0,0.0,0.0,"(-1.0, 0.0, 0.0, 0.0, 0.0, 0.0, 0.0, 0.0, 0.0)",0.035,0.011000000000000001,0.007999999999999998,"(1.2184696791468346e-07, 0.0, 0.0, 0.0, 1.2184696791468346e-07, 0.0, 0.0, 0.0, 1.2184696791468346e-07)",-1.4317709,0.2353596000000012,9.73800345,"(8.999999999999999e-08, 0.0, 0.0, 0.0, 8.999999999999999e-08, 0.0, 0.0, 0.0, 8.999999999999999e-08)"
2025/07/05/17:44:32.002958,7437,1751712272,1400528,base_link,0.0,0.0,0.0,0.0,"(-1.0, 0.0, 0.0, 0.0, 0.0, 0.0, 0.0, 0.0, 0.0)",-0.061,-0.003000000000000002,-0.014,"(1.2184696791468346e-07, 0.0, 0.0, 0.0, 1.2184696791468346e-07, 0.0, 0.0, 0.0, 1.2184696791468346e-07)",-1.4317709,0.1667130500000012,9.6693569,"(8.999999999999999e-08, 0.0, 0.0, 0.0, 8.999999999999999e-08, 0.0, 0.0, 0.0, 8.999999999999999e-08)"
2025/07/05/17:44:32.082071,7438,1751712272,80239648,base_link,0.0,0.0,0.0,0.0,"(-1.0, 0.0, 0.0, 0.0, 0.0, 0.0, 0.0, 0.0, 0.0)",-0.052000000000000005,-0.014000000000000002,-0.013,"(1.2184696791468346e-07, 0.0, 0.0, 0.0, 1.2184696791468346e-07, 0.0, 0.0, 0.0, 1.2184696791468346e-07)",-1.4121576,0.10787315000000117,9.58109705,"(8.999999999999999e-08, 0.0, 0.0, 0.0, 8.999999999999999e-08, 0.0, 0.0, 0.0, 8.999999999999999e-08)"
2025/07/05/17:44:32.181648,7439,1751712272,180068488,base_link,0.0,0.0,0.0,0.0,"(-1.0, 0.0, 0.0, 0.0, 0.0, 0.0, 0.0, 0.0, 0.0)",0.027,-0.015,0.0010000000000000018,"(1.2184696791468346e-07, 0.0, 0.0, 0.0, 1.2184696791468346e-07, 0.0, 0.0, 0.0, 1.2184696791468346e-07)",-1.3925443,0.05883990000000117,9.5909037,"(8.999999999999999e-08, 0.0, 0.0, 0.0, 8.999999999999999e-08, 0.0, 0.0, 0.0, 8.999999999999999e-08)"
2025/07/05/17:44:32.282027,7440,1751712272,280278120,base_link,0.0,0.0,0.0,0.0,"(-1.0, 0.0, 0.0, 0.0, 0.0, 0.0, 0.0, 0.0, 0.0)",0.089,-0.000999999999999998,0.016,"(1.2184696791468346e-07, 0.0, 0.0, 0.0, 1.2184696791468346e-07, 0.0, 0.0, 0.0, 1.2184696791468346e-07)",-1.42196425,0.1274864500000012,9.65955025,"(8.999999999999999e-08, 0.0, 0.0, 0.0, 8.999999999999999e-08, 0.0, 0.0, 0.0, 8.999999999999999e-08)"
2025/07/05/17:44:32.423160,7441,1751712272,421262496,base_link,0.0,0.0,0.0,0.0,"(-1.0, 0.0, 0.0, 0.0, 0.0, 0.0, 0.0, 0.0, 0.0)",0.043000000000000003,0.013000000000000001,0.003999999999999998,"(1.2184696791468346e-07, 0.0, 0.0, 0.0, 1.2184696791468346e-07, 0.0, 0.0, 0.0, 1.2184696791468346e-07)",-1.44157755,0.2451662500000012,9.7281968,"(8.999999999999999e-08, 0.0, 0.0, 0.0, 8.999999999999999e-08, 0.0, 0.0, 0.0, 8.999999999999999e-08)"
2025/07/05/17:44:32.581762,7442,1751712272,580655296,base_link,0.0,0.0,0.0,0.0,"(-1.0, 0.0, 0.0, 0.0, 0.0, 0.0, 0.0, 0.0, 0.0)",-0.058,-0.006000000000000002,-0.017,"(1.2184696791468346e-07, 0.0, 0.0, 0.0, 1.2184696791468346e-07, 0.0, 0.0, 0.0, 1.2184696791468346e-07)",-1.4317709,0.1470997500000012,9.639936950000001,"(8.999999999999999e-08, 0.0, 0.0, 0.0, 8.999999999999999e-08, 0.0, 0.0, 0.0, 8.999999999999999e-08)"
2025/07/05/17:44:32.682892,7443,1751712272,681223296,base_link,0.0,0.0,0.0,0.0,"(-1.0, 0.0, 0.0, 0.0, 0.0, 0.0, 0.0, 0.0, 0.0)",-0.024,-0.019,-0.009999999999999998,"(1.2184696791468346e-07, 0.0, 0.0, 0.0, 1.2184696791468346e-07, 0.0, 0.0, 0.0, 1.2184696791468346e-07)",-1.40235095,0.10787315000000117,9.56148375,"(8.999999999999999e-08, 0.0, 0.0, 0.0, 8.999999999999999e-08, 0.0, 0.0, 0.0, 8.999999999999999e-08)"
2025/07/05/17:44:32.805191,7444,1751712272,802092136,base_link,0.0,0.0,0.0,0.0,"(-1.0, 0.0, 0.0, 0.0, 0.0, 0.0, 0.0, 0.0, 0.0)",0.064,-0.009000000000000001,0.007000000000000001,"(1.2184696791468346e-07, 0.0, 0.0, 0.0, 1.2184696791468346e-07, 0.0, 0.0, 0.0, 1.2184696791468346e-07)",-1.42196425,0.08825985000000118,9.6301303,"(8.999999999999999e-08, 0.0, 0.0, 0.0, 8.999999999999999e-08, 0.0, 0.0, 0.0, 8.999999999999999e-08)"
2025/07/05/17:44:32.881881,7445,1751712272,880684136,base_link,0.0,0.0,0.0,0.0,"(-1.0, 0.0, 0.0, 0.0, 0.0, 0.0, 0.0, 0.0, 0.0)",0.074,0.004000000000000001,0.009000000000000001,"(1.2184696791468346e-07, 0.0, 0.0, 0.0, 1.2184696791468346e-07, 0.0, 0.0, 0.0, 1.2184696791468346e-07)",-1.4317709,0.1765197000000012,9.67916355,"(8.999999999999999e-08, 0.0, 0.0, 0.0, 8.999999999999999e-08, 0.0, 0.0, 0.0, 8.999999999999999e-08)"
2025/07/05/17:44:33.003911,7446,1751712273,2123488,base_link,0.0,0.0,0.0,0.0,"(-1.0, 0.0, 0.0, 0.0, 0.0, 0.0, 0.0, 0.0, 0.0)",0.016,0.012,-0.0030000000000000014,"(1.2184696791468346e-07, 0.0, 0.0, 0.0, 1.2184696791468346e-07, 0.0, 0.0, 0.0, 1.2184696791468346e-07)",-1.4317709,0.2059396500000012,9.71839015,"(8.999999999999999e-08, 0.0, 0.0, 0.0, 8.999999999999999e-08, 0.0, 0.0, 0.0, 8.999999999999999e-08)"
2025/07/05/17:44:33.081906,7447,1751712273,80042096,base_link,0.0,0.0,0.0,0.0,"(-1.0, 0.0, 0.0, 0.0, 0.0, 0.0, 0.0, 0.0, 0.0)",-0.029,0.0029999999999999988,-0.011,"(1.2184696791468346e-07, 0.0, 0.0, 0.0, 1.2184696791468346e-07, 0.0, 0.0, 0.0, 1.2184696791468346e-07)",-1.44157755,0.1863263500000012,9.67916355,"(8.999999999999999e-08, 0.0, 0.0, 0.0, 8.999999999999999e-08, 0.0, 0.0, 0.0, 8.999999999999999e-08)"
2025/07/05/17:44:33.182036,7448,1751712273,180268096,base_link,0.0,0.0,0.0,0.0,"(-1.0, 0.0, 0.0, 0.0, 0.0, 0.0, 0.0, 0.0, 0.0)",-0.029,-0.013000000000000003,-0.009999999999999998,"(1.2184696791468346e-07, 0.0, 0.0, 0.0, 1.2184696791468346e-07, 0.0, 0.0, 0.0, 1.2184696791468346e-07)",-1.4317709,0.11767980000000117,9.60071035,"(8.999999999999999e-08, 0.0, 0.0, 0.0, 8.999999999999999e-08, 0.0, 0.0, 0.0, 8.999999999999999e-08)"
2025/07/05/17:44:33.262007,7449,1751712273,260511960,base_link,0.0,0.0,0.0,0.0,"(-1.0, 0.0, 0.0, 0.0, 0.0, 0.0, 0.0, 0.0, 0.0)",0.016,-0.018000000000000002,2.204364238465236e-18,"(1.2184696791468346e-07, 0.0, 0.0, 0.0, 1.2184696791468346e-07, 0.0, 0.0, 0.0, 1.2184696791468346e-07)",-1.4121576,0.10787315000000117,9.5909037,"(8.999999999999999e-08, 0.0, 0.0, 0.0, 8.999999999999999e-08, 0.0, 0.0, 0.0, 8.999999999999999e-08)"
2025/07/05/17:44:33.362211,7450,1751712273,360501824,base_link,0.0,0.0,0.0,0.0,"(-1.0, 0.0, 0.0, 0.0, 0.0, 0.0, 0.0, 0.0, 0.0)",0.068,-0.009,0.008000000000000002,"(1.2184696791468346e-07, 0.0, 0.0, 0.0, 1.2184696791468346e-07, 0.0, 0.0, 0.0, 1.2184696791468346e-07)",-1.42196425,0.1372931000000012,9.6497436,"(8.999999999999999e-08, 0.0, 0.0, 0.0, 8.999999999999999e-08, 0.0, 0.0, 0.0, 8.999999999999999e-08)"
2025/07/05/17:44:33.503578,7451,1751712273,502058944,base_link,0.0,0.0,0.0,0.0,"(-1.0, 0.0, 0.0, 0.0, 0.0, 0.0, 0.0, 0.0, 0.0)",0.031,0.009000000000000001,-1.102182119232618e-18,"(1.2184696791468346e-07, 0.0, 0.0, 0.0, 1.2184696791468346e-07, 0.0, 0.0, 0.0, 1.2184696791468346e-07)",-1.4513842000000001,0.2255529500000012,9.7085835,"(8.999999999999999e-08, 0.0, 0.0, 0.0, 8.999999999999999e-08, 0.0, 0.0, 0.0, 8.999999999999999e-08)"
2025/07/05/17:44:33.604339,7452,1751712273,602319320,base_link,0.0,0.0,0.0,0.0,"(-1.0, 0.0, 0.0, 0.0, 0.0, 0.0, 0.0, 0.0, 0.0)",-0.032,0.006999999999999998,-0.012,"(1.2184696791468346e-07, 0.0, 0.0, 0.0, 1.2184696791468346e-07, 0.0, 0.0, 0.0, 1.2184696791468346e-07)",-1.44157755,0.2059396500000012,9.67916355,"(8.999999999999999e-08, 0.0, 0.0, 0.0, 8.999999999999999e-08, 0.0, 0.0, 0.0, 8.999999999999999e-08)"
2025/07/05/17:44:33.702681,7453,1751712273,701561320,base_link,0.0,0.0,0.0,0.0,"(-1.0, 0.0, 0.0, 0.0, 0.0, 0.0, 0.0, 0.0, 0.0)",-0.049,-0.003000000000000002,-0.013000000000000001,"(1.2184696791468346e-07, 0.0, 0.0, 0.0, 1.2184696791468346e-07, 0.0, 0.0, 0.0, 1.2184696791468346e-07)",-1.42196425,0.11767980000000118,9.6301303,"(8.999999999999999e-08, 0.0, 0.0, 0.0, 8.999999999999999e-08, 0.0, 0.0, 0.0, 8.999999999999999e-08)"
2025/07/05/17:44:33.804036,7454,1751712273,801799928,base_link,0.0,0.0,0.0,0.0,"(-1.0, 0.0, 0.0, 0.0, 0.0, 0.0, 0.0, 0.0, 0.0)",0.01,-0.012,-0.0019999999999999987,"(1.2184696791468346e-07, 0.0, 0.0, 0.0, 1.2184696791468346e-07, 0.0, 0.0, 0.0, 1.2184696791468346e-07)",-1.4121576,0.08825985000000117,9.5909037,"(8.999999999999999e-08, 0.0, 0.0, 0.0, 8.999999999999999e-08, 0.0, 0.0, 0.0, 8.999999999999999e-08)"
2025/07/05/17:44:33.903339,7455,1751712273,901307928,base_link,0.0,0.0,0.0,0.0,"(-1.0, 0.0, 0.0, 0.0, 0.0, 0.0, 0.0, 0.0, 0.0)",0.076,-0.009,0.009000000000000003,"(1.2184696791468346e-07, 0.0, 0.0, 0.0, 1.2184696791468346e-07, 0.0, 0.0, 0.0, 1.2184696791468346e-07)",-1.42196425,0.10787315000000118,9.6301303,"(8.999999999999999e-08, 0.0, 0.0, 0.0, 8.999999999999999e-08, 0.0, 0.0, 0.0, 8.999999999999999e-08)"
2025/07/05/17:44:34.003643,7456,1751712274,2094816,base_link,0.0,0.0,0.0,0.0,"(-1.0, 0.0, 0.0, 0.0, 0.0, 0.0, 0.0, 0.0, 0.0)",0.075,-0.0009999999999999985,0.012,"(1.2184696791468346e-07, 0.0, 0.0, 0.0, 1.2184696791468346e-07, 0.0, 0.0, 0.0, 1.2184696791468346e-07)",-1.44157755,0.2059396500000012,9.67916355,"(8.999999999999999e-08, 0.0, 0.0, 0.0, 8.999999999999999e-08, 0.0, 0.0, 0.0, 8.999999999999999e-08)"
2025/07/05/17:44:34.081881,7457,1751712274,80324912,base_link,0.0,0.0,0.0,0.0,"(-1.0, 0.0, 0.0, 0.0, 0.0, 0.0, 0.0, 0.0, 0.0)",0.029,0.0020000000000000005,0.0029999999999999996,"(1.2184696791468346e-07, 0.0, 0.0, 0.0, 1.2184696791468346e-07, 0.0, 0.0, 0.0, 1.2184696791468346e-07)",-1.44157755,0.2157463000000012,9.6889702,"(8.999999999999999e-08, 0.0, 0.0, 0.0, 8.999999999999999e-08, 0.0, 0.0, 0.0, 8.999999999999999e-08)"
2025/07/05/17:44:34.183044,7458,1751712274,180628912,base_link,0.0,0.0,0.0,0.0,"(-1.0, 0.0, 0.0, 0.0, 0.0, 0.0, 0.0, 0.0, 0.0)",-0.038,-9.797174393178825e-19,-0.008,"(1.2184696791468346e-07, 0.0, 0.0, 0.0, 1.2184696791468346e-07, 0.0, 0.0, 0.0, 1.2184696791468346e-07)",-1.44157755,0.2059396500000012,9.6693569,"(8.999999999999999e-08, 0.0, 0.0, 0.0, 8.999999999999999e-08, 0.0, 0.0, 0.0, 8.999999999999999e-08)"
2025/07/05/17:44:34.242344,7459,1751712274,240701912,base_link,0.0,0.0,0.0,0.0,"(-1.0, 0.0, 0.0, 0.0, 0.0, 0.0, 0.0, 0.0, 0.0)",-0.053,-0.004000000000000001,-0.01,"(1.2184696791468346e-07, 0.0, 0.0, 0.0, 1.2184696791468346e-07, 0.0, 0.0, 0.0, 1.2184696791468346e-07)",-1.42196425,0.1470997500000012,9.639936950000001,"(8.999999999999999e-08, 0.0, 0.0, 0.0, 8.999999999999999e-08, 0.0, 0.0, 0.0, 8.999999999999999e-08)"
2025/07/05/17:44:34.363072,7460,1751712274,360482176,base_link,0.0,0.0,0.0,0.0,"(-1.0, 0.0, 0.0, 0.0, 0.0, 0.0, 0.0, 0.0, 0.0)",0.001,-0.008,9.797174393178825e-19,"(1.2184696791468346e-07, 0.0, 0.0, 0.0, 1.2184696791468346e-07, 0.0, 0.0, 0.0, 1.2184696791468346e-07)",-1.42196425,0.10787315000000117,9.60071035,"(8.999999999999999e-08, 0.0, 0.0, 0.0, 8.999999999999999e-08, 0.0, 0.0, 0.0, 8.999999999999999e-08)"
2025/07/05/17:44:34.522811,7461,1751712274,521258832,base_link,0.0,0.0,0.0,0.0,"(-1.0, 0.0, 0.0, 0.0, 0.0, 0.0, 0.0, 0.0, 0.0)",0.07100000000000001,1.7145055188062945e-18,0.014,"(1.2184696791468346e-07, 0.0, 0.0, 0.0, 1.2184696791468346e-07, 0.0, 0.0, 0.0, 1.2184696791468346e-07)",-1.44157755,0.1372931000000012,9.6889702,"(8.999999999999999e-08, 0.0, 0.0, 0.0, 8.999999999999999e-08, 0.0, 0.0, 0.0, 8.999999999999999e-08)"
2025/07/05/17:44:34.625922,7462,1751712274,624350232,base_link,0.0,0.0,0.0,0.0,"(-1.0, 0.0, 0.0, 0.0, 0.0, 0.0, 0.0, 0.0, 0.0)",0.029,0.005000000000000001,0.006999999999999999,"(1.2184696791468346e-07, 0.0, 0.0, 0.0, 1.2184696791468346e-07, 0.0, 0.0, 0.0, 1.2184696791468346e-07)",-1.44157755,0.2157463000000012,9.69877685,"(8.999999999999999e-08, 0.0, 0.0, 0.0, 8.999999999999999e-08, 0.0, 0.0, 0.0, 8.999999999999999e-08)"
2025/07/05/17:44:34.741799,7463,1751712274,740251376,base_link,0.0,0.0,0.0,0.0,"(-1.0, 0.0, 0.0, 0.0, 0.0, 0.0, 0.0, 0.0, 0.0)",-0.036000000000000004,-7.347880794884119e-19,-0.006,"(1.2184696791468346e-07, 0.0, 0.0, 0.0, 1.2184696791468346e-07, 0.0, 0.0, 0.0, 1.2184696791468346e-07)",-1.44157755,0.1863263500000012,9.65955025,"(8.999999999999999e-08, 0.0, 0.0, 0.0, 8.999999999999999e-08, 0.0, 0.0, 0.0, 8.999999999999999e-08)"
2025/07/05/17:44:34.842255,7464,1751712274,840616520,base_link,0.0,0.0,0.0,0.0,"(-1.0, 0.0, 0.0, 0.0, 0.0, 0.0, 0.0, 0.0, 0.0)",-0.023,-0.009000000000000001,-0.0029999999999999988,"(1.2184696791468346e-07, 0.0, 0.0, 0.0, 1.2184696791468346e-07, 0.0, 0.0, 0.0, 1.2184696791468346e-07)",-1.42196425,0.11767980000000118,9.610517,"(8.999999999999999e-08, 0.0, 0.0, 0.0, 8.999999999999999e-08, 0.0, 0.0, 0.0, 8.999999999999999e-08)"
2025/07/05/17:44:34.941924,7465,1751712274,940137896,base_link,0.0,0.0,0.0,0.0,"(-1.0, 0.0, 0.0, 0.0, 0.0, 0.0, 0.0, 0.0, 0.0)",0.04,-0.013,0.009000000000000003,"(1.2184696791468346e-07, 0.0, 0.0, 0.0, 1.2184696791468346e-07, 0.0, 0.0, 0.0, 1.2184696791468346e-07)",-1.4121576,0.08825985000000118,9.62032365,"(8.999999999999999e-08, 0.0, 0.0, 0.0, 8.999999999999999e-08, 0.0, 0.0, 0.0, 8.999999999999999e-08)"
2025/07/05/17:44:35.025556,7466,1751712275,24394528,base_link,0.0,0.0,0.0,0.0,"(-1.0, 0.0, 0.0, 0.0, 0.0, 0.0, 0.0, 0.0, 0.0)",0.069,-0.007999999999999998,0.017,"(1.2184696791468346e-07, 0.0, 0.0, 0.0, 1.2184696791468346e-07, 0.0, 0.0, 0.0, 1.2184696791468346e-07)",-1.42196425,0.11767980000000118,9.6693569,"(8.999999999999999e-08, 0.0, 0.0, 0.0, 8.999999999999999e-08, 0.0, 0.0, 0.0, 8.999999999999999e-08)"
2025/07/05/17:44:35.103842,7467,1751712275,102216136,base_link,0.0,0.0,0.0,0.0,"(-1.0, 0.0, 0.0, 0.0, 0.0, 0.0, 0.0, 0.0, 0.0)",0.051000000000000004,1.8369701987210296e-18,0.015,"(1.2184696791468346e-07, 0.0, 0.0, 0.0, 1.2184696791468346e-07, 0.0, 0.0, 0.0, 1.2184696791468346e-07)",-1.4317709,0.2059396500000012,9.7085835,"(8.999999999999999e-08, 0.0, 0.0, 0.0, 8.999999999999999e-08, 0.0, 0.0, 0.0, 8.999999999999999e-08)"
2025/07/05/17:44:35.203428,7468,1751712275,202172768,base_link,0.0,0.0,0.0,0.0,"(-1.0, 0.0, 0.0, 0.0, 0.0, 0.0, 0.0, 0.0, 0.0)",-0.004,0.005,0.0009999999999999994,"(1.2184696791468346e-07, 0.0, 0.0, 0.0, 1.2184696791468346e-07, 0.0, 0.0, 0.0, 1.2184696791468346e-07)",-1.4317709,0.2059396500000012,9.6889702,"(8.999999999999999e-08, 0.0, 0.0, 0.0, 8.999999999999999e-08, 0.0, 0.0, 0.0, 8.999999999999999e-08)"
2025/07/05/17:44:35.281964,7469,1751712275,280719768,base_link,0.0,0.0,0.0,0.0,"(-1.0, 0.0, 0.0, 0.0, 0.0, 0.0, 0.0, 0.0, 0.0)",-0.034,0.001999999999999999,-0.007,"(1.2184696791468346e-07, 0.0, 0.0, 0.0, 1.2184696791468346e-07, 0.0, 0.0, 0.0, 1.2184696791468346e-07)",-1.4317709,0.1765197000000012,9.65955025,"(8.999999999999999e-08, 0.0, 0.0, 0.0, 8.999999999999999e-08, 0.0, 0.0, 0.0, 8.999999999999999e-08)"
2025/07/05/17:44:35.425761,7470,1751712275,424148608,base_link,0.0,0.0,0.0,0.0,"(-1.0, 0.0, 0.0, 0.0, 0.0, 0.0, 0.0, 0.0, 0.0)",0.006,-0.008,0.001000000000000001,"(1.2184696791468346e-07, 0.0, 0.0, 0.0, 1.2184696791468346e-07, 0.0, 0.0, 0.0, 1.2184696791468346e-07)",-1.42196425,0.11767980000000117,9.60071035,"(8.999999999999999e-08, 0.0, 0.0, 0.0, 8.999999999999999e-08, 0.0, 0.0, 0.0, 8.999999999999999e-08)"
2025/07/05/17:44:35.562098,7471,1751712275,560554312,base_link,0.0,0.0,0.0,0.0,"(-1.0, 0.0, 0.0, 0.0, 0.0, 0.0, 0.0, 0.0, 0.0)",0.059000000000000004,-0.004999999999999998,0.015,"(1.2184696791468346e-07, 0.0, 0.0, 0.0, 1.2184696791468346e-07, 0.0, 0.0, 0.0, 1.2184696791468346e-07)",-1.42196425,0.1274864500000012,9.65955025,"(8.999999999999999e-08, 0.0, 0.0, 0.0, 8.999999999999999e-08, 0.0, 0.0, 0.0, 8.999999999999999e-08)"
2025/07/05/17:44:35.662590,7472,1751712275,660765432,base_link,0.0,0.0,0.0,0.0,"(-1.0, 0.0, 0.0, 0.0, 0.0, 0.0, 0.0, 0.0, 0.0)",0.025,0.001000000000000001,0.008,"(1.2184696791468346e-07, 0.0, 0.0, 0.0, 1.2184696791468346e-07, 0.0, 0.0, 0.0, 1.2184696791468346e-07)",-1.42196425,0.2157463000000012,9.69877685,"(8.999999999999999e-08, 0.0, 0.0, 0.0, 8.999999999999999e-08, 0.0, 0.0, 0.0, 8.999999999999999e-08)"
2025/07/05/17:44:35.762007,7473,1751712275,760621040,base_link,0.0,0.0,0.0,0.0,"(-1.0, 0.0, 0.0, 0.0, 0.0, 0.0, 0.0, 0.0, 0.0)",-0.019,0.0009999999999999994,-0.005,"(1.2184696791468346e-07, 0.0, 0.0, 0.0, 1.2184696791468346e-07, 0.0, 0.0, 0.0, 1.2184696791468346e-07)",-1.42196425,0.1765197000000012,9.67916355,"(8.999999999999999e-08, 0.0, 0.0, 0.0, 8.999999999999999e-08, 0.0, 0.0, 0.0, 8.999999999999999e-08)"
2025/07/05/17:44:35.842183,7474,1751712275,841001040,base_link,0.0,0.0,0.0,0.0,"(-1.0, 0.0, 0.0, 0.0, 0.0, 0.0, 0.0, 0.0, 0.0)",-0.025,-0.005000000000000001,-0.006999999999999999,"(1.2184696791468346e-07, 0.0, 0.0, 0.0, 1.2184696791468346e-07, 0.0, 0.0, 0.0, 1.2184696791468346e-07)",-1.4121576,0.1470997500000012,9.62032365,"(8.999999999999999e-08, 0.0, 0.0, 0.0, 8.999999999999999e-08, 0.0, 0.0, 0.0, 8.999999999999999e-08)"
2025/07/05/17:44:35.962255,7475,1751712275,960276624,base_link,0.0,0.0,0.0,0.0,"(-1.0, 0.0, 0.0, 0.0, 0.0, 0.0, 0.0, 0.0, 0.0)",0.028,-0.010999999999999998,0.009000000000000003,"(1.2184696791468346e-07, 0.0, 0.0, 0.0, 1.2184696791468346e-07, 0.0, 0.0, 0.0, 1.2184696791468346e-07)",-1.4121576,0.10787315000000118,9.639936950000001,"(8.999999999999999e-08, 0.0, 0.0, 0.0, 8.999999999999999e-08, 0.0, 0.0, 0.0, 8.999999999999999e-08)"
2025/07/05/17:44:36.042108,7476,1751712276,40809624,base_link,0.0,0.0,0.0,0.0,"(-1.0, 0.0, 0.0, 0.0, 0.0, 0.0, 0.0, 0.0, 0.0)",0.058,-0.0069999999999999975,0.02,"(1.2184696791468346e-07, 0.0, 0.0, 0.0, 1.2184696791468346e-07, 0.0, 0.0, 0.0, 1.2184696791468346e-07)",-1.4121576,0.11767980000000118,9.6693569,"(8.999999999999999e-08, 0.0, 0.0, 0.0, 8.999999999999999e-08, 0.0, 0.0, 0.0, 8.999999999999999e-08)"
2025/07/05/17:44:36.161807,7477,1751712276,160669840,base_link,0.0,0.0,0.0,0.0,"(-1.0, 0.0, 0.0, 0.0, 0.0, 0.0, 0.0, 0.0, 0.0)",0.031,0.005000000000000002,0.016,"(1.2184696791468346e-07, 0.0, 0.0, 0.0, 1.2184696791468346e-07, 0.0, 0.0, 0.0, 1.2184696791468346e-07)",-1.4121576,0.2059396500000012,9.71839015,"(8.999999999999999e-08, 0.0, 0.0, 0.0, 8.999999999999999e-08, 0.0, 0.0, 0.0, 8.999999999999999e-08)"
2025/07/05/17:44:36.262352,7478,1751712276,260359704,base_link,0.0,0.0,0.0,0.0,"(-1.0, 0.0, 0.0, 0.0, 0.0, 0.0, 0.0, 0.0, 0.0)",-0.02,0.007,-0.0010000000000000009,"(1.2184696791468346e-07, 0.0, 0.0, 0.0, 1.2184696791468346e-07, 0.0, 0.0, 0.0, 1.2184696791468346e-07)",-1.4317709,0.1961330000000012,9.6693569,"(8.999999999999999e-08, 0.0, 0.0, 0.0, 8.999999999999999e-08, 0.0, 0.0, 0.0, 8.999999999999999e-08)"
2025/07/05/17:44:36.342071,7479,1751712276,341032704,base_link,0.0,0.0,0.0,0.0,"(-1.0, 0.0, 0.0, 0.0, 0.0, 0.0, 0.0, 0.0, 0.0)",-0.036000000000000004,-1.102182119232618e-18,-0.009000000000000001,"(1.2184696791468346e-07, 0.0, 0.0, 0.0, 1.2184696791468346e-07, 0.0, 0.0, 0.0, 1.2184696791468346e-07)",-1.4121576,0.1470997500000012,9.639936950000001,"(8.999999999999999e-08, 0.0, 0.0, 0.0, 8.999999999999999e-08, 0.0, 0.0, 0.0, 8.999999999999999e-08)"
2025/07/05/17:44:36.522615,7480,1751712276,522122432,base_link,0.0,0.0,0.0,0.0,"(-1.0, 0.0, 0.0, 0.0, 0.0, 0.0, 0.0, 0.0, 0.0)",0.036000000000000004,-0.011999999999999999,0.012000000000000002,"(1.2184696791468346e-07, 0.0, 0.0, 0.0, 1.2184696791468346e-07, 0.0, 0.0, 0.0, 1.2184696791468346e-07)",-1.40235095,0.09806650000000118,9.639936950000001,"(8.999999999999999e-08, 0.0, 0.0, 0.0, 8.999999999999999e-08, 0.0, 0.0, 0.0, 8.999999999999999e-08)"
2025/07/05/17:44:36.625754,7481,1751712276,624399064,base_link,0.0,0.0,0.0,0.0,"(-1.0, 0.0, 0.0, 0.0, 0.0, 0.0, 0.0, 0.0, 0.0)",0.047,-0.0039999999999999975,0.018000000000000002,"(1.2184696791468346e-07, 0.0, 0.0, 0.0, 1.2184696791468346e-07, 0.0, 0.0, 0.0, 1.2184696791468346e-07)",-1.4121576,0.1372931000000012,9.6889702,"(8.999999999999999e-08, 0.0, 0.0, 0.0, 8.999999999999999e-08, 0.0, 0.0, 0.0, 8.999999999999999e-08)"
2025/07/05/17:44:36.703344,7482,1751712276,701922696,base_link,0.0,0.0,0.0,0.0,"(-1.0, 0.0, 0.0, 0.0, 0.0, 0.0, 0.0, 0.0, 0.0)",0.026000000000000002,0.0020000000000000013,0.011,"(1.2184696791468346e-07, 0.0, 0.0, 0.0, 1.2184696791468346e-07, 0.0, 0.0, 0.0, 1.2184696791468346e-07)",-1.42196425,0.2059396500000012,9.6889702,"(8.999999999999999e-08, 0.0, 0.0, 0.0, 8.999999999999999e-08, 0.0, 0.0, 0.0, 8.999999999999999e-08)"
2025/07/05/17:44:36.804313,7483,1751712276,802464048,base_link,0.0,0.0,0.0,0.0,"(-1.0, 0.0, 0.0, 0.0, 0.0, 0.0, 0.0, 0.0, 0.0)",0.0,0.003,-3.6739403974420597e-19,"(1.2184696791468346e-07, 0.0, 0.0, 0.0, 1.2184696791468346e-07, 0.0, 0.0, 0.0, 1.2184696791468346e-07)",-1.40235095,0.1667130500000012,9.67916355,"(8.999999999999999e-08, 0.0, 0.0, 0.0, 8.999999999999999e-08, 0.0, 0.0, 0.0, 8.999999999999999e-08)"
2025/07/05/17:44:36.903005,7484,1751712276,902235048,base_link,0.0,0.0,0.0,0.0,"(-1.0, 0.0, 0.0, 0.0, 0.0, 0.0, 0.0, 0.0, 0.0)",0.005,-0.004,4.898587196589413e-19,"(1.2184696791468346e-07, 0.0, 0.0, 0.0, 1.2184696791468346e-07, 0.0, 0.0, 0.0, 1.2184696791468346e-07)",-1.40235095,0.1372931000000012,9.6301303,"(8.999999999999999e-08, 0.0, 0.0, 0.0, 8.999999999999999e-08, 0.0, 0.0, 0.0, 8.999999999999999e-08)"
2025/07/05/17:44:37.025625,7485,1751712277,24311400,base_link,0.0,0.0,0.0,0.0,"(-1.0, 0.0, 0.0, 0.0, 0.0, 0.0, 0.0, 0.0, 0.0)",0.032,-0.007999999999999998,0.012000000000000002,"(1.2184696791468346e-07, 0.0, 0.0, 0.0, 1.2184696791468346e-07, 0.0, 0.0, 0.0, 1.2184696791468346e-07)",-1.4121576,0.1372931000000012,9.6497436,"(8.999999999999999e-08, 0.0, 0.0, 0.0, 8.999999999999999e-08, 0.0, 0.0, 0.0, 8.999999999999999e-08)"
2025/07/05/17:44:37.141827,7486,1751712277,140326752,base_link,0.0,0.0,0.0,0.0,"(-1.0, 0.0, 0.0, 0.0, 0.0, 0.0, 0.0, 0.0, 0.0)",0.018000000000000002,-0.0019999999999999983,0.013000000000000001,"(1.2184696791468346e-07, 0.0, 0.0, 0.0, 1.2184696791468346e-07, 0.0, 0.0, 0.0, 1.2184696791468346e-07)",-1.3925443,0.1765197000000012,9.7085835,"(8.999999999999999e-08, 0.0, 0.0, 0.0, 8.999999999999999e-08, 0.0, 0.0, 0.0, 8.999999999999999e-08)"
2025/07/05/17:44:37.225871,7487,1751712277,224393592,base_link,0.0,0.0,0.0,0.0,"(-1.0, 0.0, 0.0, 0.0, 0.0, 0.0, 0.0, 0.0, 0.0)",-0.01,0.0020000000000000005,0.004,"(1.2184696791468346e-07, 0.0, 0.0, 0.0, 1.2184696791468346e-07, 0.0, 0.0, 0.0, 1.2184696791468346e-07)",-1.4121576,0.1863263500000012,9.69877685,"(8.999999999999999e-08, 0.0, 0.0, 0.0, 8.999999999999999e-08, 0.0, 0.0, 0.0, 8.999999999999999e-08)"
2025/07/05/17:44:37.323120,7488,1751712277,320648712,base_link,0.0,0.0,0.0,0.0,"(-1.0, 0.0, 0.0, 0.0, 0.0, 0.0, 0.0, 0.0, 0.0)",-0.026000000000000002,0.0009999999999999994,-0.005,"(1.2184696791468346e-07, 0.0, 0.0, 0.0, 1.2184696791468346e-07, 0.0, 0.0, 0.0, 1.2184696791468346e-07)",-1.40235095,0.1372931000000012,9.639936950000001,"(8.999999999999999e-08, 0.0, 0.0, 0.0, 8.999999999999999e-08, 0.0, 0.0, 0.0, 8.999999999999999e-08)"
2025/07/05/17:44:37.403850,7489,1751712277,402736576,base_link,0.0,0.0,0.0,0.0,"(-1.0, 0.0, 0.0, 0.0, 0.0, 0.0, 0.0, 0.0, 0.0)",-0.005,-0.0020000000000000005,-0.0019999999999999996,"(1.2184696791468346e-07, 0.0, 0.0, 0.0, 1.2184696791468346e-07, 0.0, 0.0, 0.0, 1.2184696791468346e-07)",-1.40235095,0.11767980000000118,9.6301303,"(8.999999999999999e-08, 0.0, 0.0, 0.0, 8.999999999999999e-08, 0.0, 0.0, 0.0, 8.999999999999999e-08)"
2025/07/05/17:44:37.582058,7490,1751712277,580290744,base_link,0.0,0.0,0.0,0.0,"(-1.0, 0.0, 0.0, 0.0, 0.0, 0.0, 0.0, 0.0, 0.0)",0.056,-0.003999999999999998,0.016,"(1.2184696791468346e-07, 0.0, 0.0, 0.0, 1.2184696791468346e-07, 0.0, 0.0, 0.0, 1.2184696791468346e-07)",-1.3925443,0.1470997500000012,9.65955025,"(8.999999999999999e-08, 0.0, 0.0, 0.0, 8.999999999999999e-08, 0.0, 0.0, 0.0, 8.999999999999999e-08)"
2025/07/05/17:44:37.662364,7491,1751712277,661124096,base_link,0.0,0.0,0.0,0.0,"(-1.0, 0.0, 0.0, 0.0, 0.0, 0.0, 0.0, 0.0, 0.0)",0.04,-0.0009999999999999983,0.015,"(1.2184696791468346e-07, 0.0, 0.0, 0.0, 1.2184696791468346e-07, 0.0, 0.0, 0.0, 1.2184696791468346e-07)",-1.40235095,0.1863263500000012,9.67916355,"(8.999999999999999e-08, 0.0, 0.0, 0.0, 8.999999999999999e-08, 0.0, 0.0, 0.0, 8.999999999999999e-08)"
2025/07/05/17:44:37.761980,7492,1751712277,760711448,base_link,0.0,0.0,0.0,0.0,"(-1.0, 0.0, 0.0, 0.0, 0.0, 0.0, 0.0, 0.0, 0.0)",0.002,-0.0009999999999999994,0.006,"(1.2184696791468346e-07, 0.0, 0.0, 0.0, 1.2184696791468346e-07, 0.0, 0.0, 0.0, 1.2184696791468346e-07)",-1.4121576,0.1863263500000012,9.65955025,"(8.999999999999999e-08, 0.0, 0.0, 0.0, 8.999999999999999e-08, 0.0, 0.0, 0.0, 8.999999999999999e-08)"
2025/07/05/17:44:37.862102,7493,1751712277,860634312,base_link,0.0,0.0,0.0,0.0,"(-1.0, 0.0, 0.0, 0.0, 0.0, 0.0, 0.0, 0.0, 0.0)",-0.011,-0.006,0.0010000000000000007,"(1.2184696791468346e-07, 0.0, 0.0, 0.0, 1.2184696791468346e-07, 0.0, 0.0, 0.0, 1.2184696791468346e-07)",-1.3925443,0.1372931000000012,9.6497436,"(8.999999999999999e-08, 0.0, 0.0, 0.0, 8.999999999999999e-08, 0.0, 0.0, 0.0, 8.999999999999999e-08)"
2025/07/05/17:44:37.981661,7494,1751712277,980751432,base_link,0.0,0.0,0.0,0.0,"(-1.0, 0.0, 0.0, 0.0, 0.0, 0.0, 0.0, 0.0, 0.0)",0.017,-0.009,0.008000000000000002,"(1.2184696791468346e-07, 0.0, 0.0, 0.0, 1.2184696791468346e-07, 0.0, 0.0, 0.0, 1.2184696791468346e-07)",-1.40235095,0.11767980000000118,9.65955025,"(8.999999999999999e-08, 0.0, 0.0, 0.0, 8.999999999999999e-08, 0.0, 0.0, 0.0, 8.999999999999999e-08)"
2025/07/05/17:44:38.062228,7495,1751712278,61119432,base_link,0.0,0.0,0.0,0.0,"(-1.0, 0.0, 0.0, 0.0, 0.0, 0.0, 0.0, 0.0, 0.0)",0.031,-0.003999999999999998,0.013000000000000001,"(1.2184696791468346e-07, 0.0, 0.0, 0.0, 1.2184696791468346e-07, 0.0, 0.0, 0.0, 1.2184696791468346e-07)",-1.3925443,0.1470997500000012,9.6693569,"(8.999999999999999e-08, 0.0, 0.0, 0.0, 8.999999999999999e-08, 0.0, 0.0, 0.0, 8.999999999999999e-08)"
2025/07/05/17:44:38.182024,7496,1751712278,180382528,base_link,0.0,0.0,0.0,0.0,"(-1.0, 0.0, 0.0, 0.0, 0.0, 0.0, 0.0, 0.0, 0.0)",0.009000000000000001,0.0030000000000000014,0.011,"(1.2184696791468346e-07, 0.0, 0.0, 0.0, 1.2184696791468346e-07, 0.0, 0.0, 0.0, 1.2184696791468346e-07)",-1.40235095,0.1765197000000012,9.6889702,"(8.999999999999999e-08, 0.0, 0.0, 0.0, 8.999999999999999e-08, 0.0, 0.0, 0.0, 8.999999999999999e-08)"
2025/07/05/17:44:38.281958,7497,1751712278,281185624,base_link,0.0,0.0,0.0,0.0,"(-1.0, 0.0, 0.0, 0.0, 0.0, 0.0, 0.0, 0.0, 0.0)",-0.015,0.004,0.0019999999999999996,"(1.2184696791468346e-07, 0.0, 0.0, 0.0, 1.2184696791468346e-07, 0.0, 0.0, 0.0, 1.2184696791468346e-07)",-1.3925443,0.1569064000000012,9.65955025,"(8.999999999999999e-08, 0.0, 0.0, 0.0, 8.999999999999999e-08, 0.0, 0.0, 0.0, 8.999999999999999e-08)"
2025/07/05/17:44:38.362209,7498,1751712278,361103624,base_link,0.0,0.0,0.0,0.0,"(-1.0, 0.0, 0.0, 0.0, 0.0, 0.0, 0.0, 0.0, 0.0)",-0.011,0.0,0.0,"(1.2184696791468346e-07, 0.0, 0.0, 0.0, 1.2184696791468346e-07, 0.0, 0.0, 0.0, 1.2184696791468346e-07)",-1.3925443,0.10787315000000118,9.639936950000001,"(8.999999999999999e-08, 0.0, 0.0, 0.0, 8.999999999999999e-08, 0.0, 0.0, 0.0, 8.999999999999999e-08)"
2025/07/05/17:44:38.581323,7499,1751712278,580515464,base_link,0.0,0.0,0.0,0.0,"(-1.0, 0.0, 0.0, 0.0, 0.0, 0.0, 0.0, 0.0, 0.0)",0.057,-0.0059999999999999975,0.018000000000000002,"(1.2184696791468346e-07, 0.0, 0.0, 0.0, 1.2184696791468346e-07, 0.0, 0.0, 0.0, 1.2184696791468346e-07)",-1.40235095,0.1569064000000012,9.67916355,"(8.999999999999999e-08, 0.0, 0.0, 0.0, 8.999999999999999e-08, 0.0, 0.0, 0.0, 8.999999999999999e-08)"
2025/07/05/17:44:38.682807,7500,1751712278,681274464,base_link,0.0,0.0,0.0,0.0,"(-1.0, 0.0, 0.0, 0.0, 0.0, 0.0, 0.0, 0.0, 0.0)",0.029,-0.004999999999999998,0.016,"(1.2184696791468346e-07, 0.0, 0.0, 0.0, 1.2184696791468346e-07, 0.0, 0.0, 0.0, 1.2184696791468346e-07)",-1.40235095,0.1961330000000012,9.6889702,"(8.999999999999999e-08, 0.0, 0.0, 0.0, 8.999999999999999e-08, 0.0, 0.0, 0.0, 8.999999999999999e-08)"
2025/07/05/17:44:38.781342,7501,1751712278,780374304,base_link,0.0,0.0,0.0,0.0,"(-1.0, 0.0, 0.0, 0.0, 0.0, 0.0, 0.0, 0.0, 0.0)",-0.012,-0.004999999999999999,0.007000000000000001,"(1.2184696791468346e-07, 0.0, 0.0, 0.0, 1.2184696791468346e-07, 0.0, 0.0, 0.0, 1.2184696791468346e-07)",-1.40235095,0.1765197000000012,9.6693569,"(8.999999999999999e-08, 0.0, 0.0, 0.0, 8.999999999999999e-08, 0.0, 0.0, 0.0, 8.999999999999999e-08)"
2025/07/05/17:44:38.842150,7502,1751712278,841100304,base_link,0.0,0.0,0.0,0.0,"(-1.0, 0.0, 0.0, 0.0, 0.0, 0.0, 0.0, 0.0, 0.0)",-0.022,-0.005,0.0030000000000000005,"(1.2184696791468346e-07, 0.0, 0.0, 0.0, 1.2184696791468346e-07, 0.0, 0.0, 0.0, 1.2184696791468346e-07)",-1.3925443,0.1470997500000012,9.6497436,"(8.999999999999999e-08, 0.0, 0.0, 0.0, 8.999999999999999e-08, 0.0, 0.0, 0.0, 8.999999999999999e-08)"
2025/07/05/17:44:38.961884,7503,1751712278,960685520,base_link,0.0,0.0,0.0,0.0,"(-1.0, 0.0, 0.0, 0.0, 0.0, 0.0, 0.0, 0.0, 0.0)",0.006,-0.002999999999999999,0.007,"(1.2184696791468346e-07, 0.0, 0.0, 0.0, 1.2184696791468346e-07, 0.0, 0.0, 0.0, 1.2184696791468346e-07)",-1.3925443,0.10787315000000118,9.65955025,"(8.999999999999999e-08, 0.0, 0.0, 0.0, 8.999999999999999e-08, 0.0, 0.0, 0.0, 8.999999999999999e-08)"
2025/07/05/17:44:39.061793,7504,1751712279,60488640,base_link,0.0,0.0,0.0,0.0,"(-1.0, 0.0, 0.0, 0.0, 0.0, 0.0, 0.0, 0.0, 0.0)",0.028,0.0010000000000000015,0.013000000000000001,"(1.2184696791468346e-07, 0.0, 0.0, 0.0, 1.2184696791468346e-07, 0.0, 0.0, 0.0, 1.2184696791468346e-07)",-1.40235095,0.1372931000000012,9.6889702,"(8.999999999999999e-08, 0.0, 0.0, 0.0, 8.999999999999999e-08, 0.0, 0.0, 0.0, 8.999999999999999e-08)"
2025/07/05/17:44:39.161772,7505,1751712279,161142504,base_link,0.0,0.0,0.0,0.0,"(-1.0, 0.0, 0.0, 0.0, 0.0, 0.0, 0.0, 0.0, 0.0)",0.014,0.005000000000000002,0.011,"(1.2184696791468346e-07, 0.0, 0.0, 0.0, 1.2184696791468346e-07, 0.0, 0.0, 0.0, 1.2184696791468346e-07)",-1.40235095,0.1765197000000012,9.6889702,"(8.999999999999999e-08, 0.0, 0.0, 0.0, 8.999999999999999e-08, 0.0, 0.0, 0.0, 8.999999999999999e-08)"
2025/07/05/17:44:39.261699,7506,1751712279,260767856,base_link,0.0,0.0,0.0,0.0,"(-1.0, 0.0, 0.0, 0.0, 0.0, 0.0, 0.0, 0.0, 0.0)",-0.008,0.0020000000000000005,0.004,"(1.2184696791468346e-07, 0.0, 0.0, 0.0, 1.2184696791468346e-07, 0.0, 0.0, 0.0, 1.2184696791468346e-07)",-1.40235095,0.1667130500000012,9.639936950000001,"(8.999999999999999e-08, 0.0, 0.0, 0.0, 8.999999999999999e-08, 0.0, 0.0, 0.0, 8.999999999999999e-08)"
2025/07/05/17:44:39.381785,7507,1751712279,380592208,base_link,0.0,0.0,0.0,0.0,"(-1.0, 0.0, 0.0, 0.0, 0.0, 0.0, 0.0, 0.0, 0.0)",0.013000000000000001,-0.008,0.005000000000000001,"(1.2184696791468346e-07, 0.0, 0.0, 0.0, 1.2184696791468346e-07, 0.0, 0.0, 0.0, 1.2184696791468346e-07)",-1.3925443,0.11767980000000117,9.60071035,"(8.999999999999999e-08, 0.0, 0.0, 0.0, 8.999999999999999e-08, 0.0, 0.0, 0.0, 8.999999999999999e-08)"
2025/07/05/17:44:39.561890,7508,1751712279,560513400,base_link,0.0,0.0,0.0,0.0,"(-1.0, 0.0, 0.0, 0.0, 0.0, 0.0, 0.0, 0.0, 0.0)",0.06,-0.009999999999999998,0.021,"(1.2184696791468346e-07, 0.0, 0.0, 0.0, 1.2184696791468346e-07, 0.0, 0.0, 0.0, 1.2184696791468346e-07)",-1.40235095,0.1667130500000012,9.69877685,"(8.999999999999999e-08, 0.0, 0.0, 0.0, 8.999999999999999e-08, 0.0, 0.0, 0.0, 8.999999999999999e-08)"
2025/07/05/17:44:39.642190,7509,1751712279,640844400,base_link,0.0,0.0,0.0,0.0,"(-1.0, 0.0, 0.0, 0.0, 0.0, 0.0, 0.0, 0.0, 0.0)",0.029,-0.001999999999999998,0.017,"(1.2184696791468346e-07, 0.0, 0.0, 0.0, 1.2184696791468346e-07, 0.0, 0.0, 0.0, 1.2184696791468346e-07)",-1.40235095,0.2059396500000012,9.7085835,"(8.999999999999999e-08, 0.0, 0.0, 0.0, 8.999999999999999e-08, 0.0, 0.0, 0.0, 8.999999999999999e-08)"
2025/07/05/17:44:39.741096,7510,1751712279,740302496,base_link,0.0,0.0,0.0,0.0,"(-1.0, 0.0, 0.0, 0.0, 0.0, 0.0, 0.0, 0.0, 0.0)",-0.024,0.005000000000000001,0.003999999999999999,"(1.2184696791468346e-07, 0.0, 0.0, 0.0, 1.2184696791468346e-07, 0.0, 0.0, 0.0, 1.2184696791468346e-07)",-1.3925443,0.1961330000000012,9.6693569,"(8.999999999999999e-08, 0.0, 0.0, 0.0, 8.999999999999999e-08, 0.0, 0.0, 0.0, 8.999999999999999e-08)"
2025/07/05/17:44:39.825351,7511,1751712279,824581496,base_link,0.0,0.0,0.0,0.0,"(-1.0, 0.0, 0.0, 0.0, 0.0, 0.0, 0.0, 0.0, 0.0)",-0.038,0.004,-0.0010000000000000005,"(1.2184696791468346e-07, 0.0, 0.0, 0.0, 1.2184696791468346e-07, 0.0, 0.0, 0.0, 1.2184696791468346e-07)",-1.40235095,0.1274864500000012,9.6301303,"(8.999999999999999e-08, 0.0, 0.0, 0.0, 8.999999999999999e-08, 0.0, 0.0, 0.0, 8.999999999999999e-08)"
2025/07/05/17:44:39.922045,7512,1751712279,921169496,base_link,0.0,0.0,0.0,0.0,"(-1.0, 0.0, 0.0, 0.0, 0.0, 0.0, 0.0, 0.0, 0.0)",-0.005,-0.0009999999999999996,0.004,"(1.2184696791468346e-07, 0.0, 0.0, 0.0, 1.2184696791468346e-07, 0.0, 0.0, 0.0, 1.2184696791468346e-07)",-1.38273765,0.09806650000000118,9.639936950000001,"(8.999999999999999e-08, 0.0, 0.0, 0.0, 8.999999999999999e-08, 0.0, 0.0, 0.0, 8.999999999999999e-08)"
2025/07/05/17:44:40.025503,7513,1751712280,24495496,base_link,0.0,0.0,0.0,0.0,"(-1.0, 0.0, 0.0, 0.0, 0.0, 0.0, 0.0, 0.0, 0.0)",0.035,-0.003999999999999998,0.014,"(1.2184696791468346e-07, 0.0, 0.0, 0.0, 1.2184696791468346e-07, 0.0, 0.0, 0.0, 1.2184696791468346e-07)",-1.40235095,0.11767980000000118,9.6693569,"(8.999999999999999e-08, 0.0, 0.0, 0.0, 8.999999999999999e-08, 0.0, 0.0, 0.0, 8.999999999999999e-08)"
2025/07/05/17:44:40.141643,7514,1751712280,140410104,base_link,0.0,0.0,0.0,0.0,"(-1.0, 0.0, 0.0, 0.0, 0.0, 0.0, 0.0, 0.0, 0.0)",0.032,1.4695761589768239e-18,0.012,"(1.2184696791468346e-07, 0.0, 0.0, 0.0, 1.2184696791468346e-07, 0.0, 0.0, 0.0, 1.2184696791468346e-07)",-1.3925443,0.1765197000000012,9.67916355,"(8.999999999999999e-08, 0.0, 0.0, 0.0, 8.999999999999999e-08, 0.0, 0.0, 0.0, 8.999999999999999e-08)"
2025/07/05/17:44:40.225765,7515,1751712280,224483200,base_link,0.0,0.0,0.0,0.0,"(-1.0, 0.0, 0.0, 0.0, 0.0, 0.0, 0.0, 0.0, 0.0)",0.013000000000000001,-0.0019999999999999996,0.005,"(1.2184696791468346e-07, 0.0, 0.0, 0.0, 1.2184696791468346e-07, 0.0, 0.0, 0.0, 1.2184696791468346e-07)",-1.40235095,0.1667130500000012,9.67916355,"(8.999999999999999e-08, 0.0, 0.0, 0.0, 8.999999999999999e-08, 0.0, 0.0, 0.0, 8.999999999999999e-08)"
2025/07/05/17:44:40.303509,7516,1751712280,302248064,base_link,0.0,0.0,0.0,0.0,"(-1.0, 0.0, 0.0, 0.0, 0.0, 0.0, 0.0, 0.0, 0.0)",0.007,-0.006999999999999999,0.005000000000000001,"(1.2184696791468346e-07, 0.0, 0.0, 0.0, 1.2184696791468346e-07, 0.0, 0.0, 0.0, 1.2184696791468346e-07)",-1.3925443,0.1372931000000012,9.639936950000001,"(8.999999999999999e-08, 0.0, 0.0, 0.0, 8.999999999999999e-08, 0.0, 0.0, 0.0, 8.999999999999999e-08)"
2025/07/05/17:44:40.403601,7517,1751712280,402550672,base_link,0.0,0.0,0.0,0.0,"(-1.0, 0.0, 0.0, 0.0, 0.0, 0.0, 0.0, 0.0, 0.0)",0.025,-0.013,0.012000000000000002,"(1.2184696791468346e-07, 0.0, 0.0, 0.0, 1.2184696791468346e-07, 0.0, 0.0, 0.0, 1.2184696791468346e-07)",-1.38273765,0.1274864500000012,9.639936950000001,"(8.999999999999999e-08, 0.0, 0.0, 0.0, 8.999999999999999e-08, 0.0, 0.0, 0.0, 8.999999999999999e-08)"
2025/07/05/17:44:40.581656,7518,1751712280,580533256,base_link,0.0,0.0,0.0,0.0,"(-1.0, 0.0, 0.0, 0.0, 0.0, 0.0, 0.0, 0.0, 0.0)",0.018000000000000002,0.0010000000000000015,0.012,"(1.2184696791468346e-07, 0.0, 0.0, 0.0, 1.2184696791468346e-07, 0.0, 0.0, 0.0, 1.2184696791468346e-07)",-1.40235095,0.1863263500000012,9.6889702,"(8.999999999999999e-08, 0.0, 0.0, 0.0, 8.999999999999999e-08, 0.0, 0.0, 0.0, 8.999999999999999e-08)"
2025/07/05/17:44:40.682233,7519,1751712280,681354256,base_link,0.0,0.0,0.0,0.0,"(-1.0, 0.0, 0.0, 0.0, 0.0, 0.0, 0.0, 0.0, 0.0)",-0.016,0.008,0.001999999999999999,"(1.2184696791468346e-07, 0.0, 0.0, 0.0, 1.2184696791468346e-07, 0.0, 0.0, 0.0, 1.2184696791468346e-07)",-1.40235095,0.1667130500000012,9.6693569,"(8.999999999999999e-08, 0.0, 0.0, 0.0, 8.999999999999999e-08, 0.0, 0.0, 0.0, 8.999999999999999e-08)"
2025/07/05/17:44:40.782045,7520,1751712280,780809840,base_link,0.0,0.0,0.0,0.0,"(-1.0, 0.0, 0.0, 0.0, 0.0, 0.0, 0.0, 0.0, 0.0)",-0.021,0.003,-3.6739403974420597e-19,"(1.2184696791468346e-07, 0.0, 0.0, 0.0, 1.2184696791468346e-07, 0.0, 0.0, 0.0, 1.2184696791468346e-07)",-1.3925443,0.11767980000000118,9.6301303,"(8.999999999999999e-08, 0.0, 0.0, 0.0, 8.999999999999999e-08, 0.0, 0.0, 0.0, 8.999999999999999e-08)"
2025/07/05/17:44:40.881842,7521,1751712280,880504424,base_link,0.0,0.0,0.0,0.0,"(-1.0, 0.0, 0.0, 0.0, 0.0, 0.0, 0.0, 0.0, 0.0)",0.014,-0.004999999999999999,0.006000000000000001,"(1.2184696791468346e-07, 0.0, 0.0, 0.0, 1.2184696791468346e-07, 0.0, 0.0, 0.0, 1.2184696791468346e-07)",-1.3925443,0.11767980000000118,9.6301303,"(8.999999999999999e-08, 0.0, 0.0, 0.0, 8.999999999999999e-08, 0.0, 0.0, 0.0, 8.999999999999999e-08)"
2025/07/05/17:44:40.981807,7522,1751712280,981177520,base_link,0.0,0.0,0.0,0.0,"(-1.0, 0.0, 0.0, 0.0, 0.0, 0.0, 0.0, 0.0, 0.0)",0.045,-0.006999999999999998,0.013000000000000001,"(1.2184696791468346e-07, 0.0, 0.0, 0.0, 1.2184696791468346e-07, 0.0, 0.0, 0.0, 1.2184696791468346e-07)",-1.3925443,0.1470997500000012,9.65955025,"(8.999999999999999e-08, 0.0, 0.0, 0.0, 8.999999999999999e-08, 0.0, 0.0, 0.0, 8.999999999999999e-08)"
2025/07/05/17:44:41.062216,7523,1751712281,61167520,base_link,0.0,0.0,0.0,0.0,"(-1.0, 0.0, 0.0, 0.0, 0.0, 0.0, 0.0, 0.0, 0.0)",0.041,-0.004999999999999998,0.012,"(1.2184696791468346e-07, 0.0, 0.0, 0.0, 1.2184696791468346e-07, 0.0, 0.0, 0.0, 1.2184696791468346e-07)",-1.40235095,0.1765197000000012,9.67916355,"(8.999999999999999e-08, 0.0, 0.0, 0.0, 8.999999999999999e-08, 0.0, 0.0, 0.0, 8.999999999999999e-08)"
2025/07/05/17:44:41.182084,7524,1751712281,180559520,base_link,0.0,0.0,0.0,0.0,"(-1.0, 0.0, 0.0, 0.0, 0.0, 0.0, 0.0, 0.0, 0.0)",0.007,-0.003999999999999999,0.004000000000000001,"(1.2184696791468346e-07, 0.0, 0.0, 0.0, 1.2184696791468346e-07, 0.0, 0.0, 0.0, 1.2184696791468346e-07)",-1.38273765,0.1765197000000012,9.67916355,"(8.999999999999999e-08, 0.0, 0.0, 0.0, 8.999999999999999e-08, 0.0, 0.0, 0.0, 8.999999999999999e-08)"
2025/07/05/17:44:41.242109,7525,1751712281,240992520,base_link,0.0,0.0,0.0,0.0,"(-1.0, 0.0, 0.0, 0.0, 0.0, 0.0, 0.0, 0.0, 0.0)",0.0,-0.006,0.003000000000000001,"(1.2184696791468346e-07, 0.0, 0.0, 0.0, 1.2184696791468346e-07, 0.0, 0.0, 0.0, 1.2184696791468346e-07)",-1.38273765,0.1569064000000012,9.639936950000001,"(8.999999999999999e-08, 0.0, 0.0, 0.0, 8.999999999999999e-08, 0.0, 0.0, 0.0, 8.999999999999999e-08)"
2025/07/05/17:44:41.361640,7526,1751712281,360753944,base_link,0.0,0.0,0.0,0.0,"(-1.0, 0.0, 0.0, 0.0, 0.0, 0.0, 0.0, 0.0, 0.0)",0.012,-0.005999999999999999,0.009000000000000001,"(1.2184696791468346e-07, 0.0, 0.0, 0.0, 1.2184696791468346e-07, 0.0, 0.0, 0.0, 1.2184696791468346e-07)",-1.38273765,0.1470997500000012,9.639936950000001,"(8.999999999999999e-08, 0.0, 0.0, 0.0, 8.999999999999999e-08, 0.0, 0.0, 0.0, 8.999999999999999e-08)"
2025/07/05/17:44:41.541337,7527,1751712281,540428944,base_link,0.0,0.0,0.0,0.0,"(-1.0, 0.0, 0.0, 0.0, 0.0, 0.0, 0.0, 0.0, 0.0)",0.01,0.005000000000000001,0.006999999999999999,"(1.2184696791468346e-07, 0.0, 0.0, 0.0, 1.2184696791468346e-07, 0.0, 0.0, 0.0, 1.2184696791468346e-07)",-1.3925443,0.1667130500000012,9.67916355,"(8.999999999999999e-08, 0.0, 0.0, 0.0, 8.999999999999999e-08, 0.0, 0.0, 0.0, 8.999999999999999e-08)"
2025/07/05/17:44:41.625396,7528,1751712281,624625808,base_link,0.0,0.0,0.0,0.0,"(-1.0, 0.0, 0.0, 0.0, 0.0, 0.0, 0.0, 0.0, 0.0)",-0.001,0.005,0.0019999999999999996,"(1.2184696791468346e-07, 0.0, 0.0, 0.0, 1.2184696791468346e-07, 0.0, 0.0, 0.0, 1.2184696791468346e-07)",-1.3925443,0.1667130500000012,9.6693569,"(8.999999999999999e-08, 0.0, 0.0, 0.0, 8.999999999999999e-08, 0.0, 0.0, 0.0, 8.999999999999999e-08)"
2025/07/05/17:44:41.703516,7529,1751712281,702404440,base_link,0.0,0.0,0.0,0.0,"(-1.0, 0.0, 0.0, 0.0, 0.0, 0.0, 0.0, 0.0, 0.0)",-0.001,0.0,0.0,"(1.2184696791468346e-07, 0.0, 0.0, 0.0, 1.2184696791468346e-07, 0.0, 0.0, 0.0, 1.2184696791468346e-07)",-1.3925443,0.1470997500000012,9.639936950000001,"(8.999999999999999e-08, 0.0, 0.0, 0.0, 8.999999999999999e-08, 0.0, 0.0, 0.0, 8.999999999999999e-08)"
2025/07/05/17:44:41.803166,7530,1751712281,802338048,base_link,0.0,0.0,0.0,0.0,"(-1.0, 0.0, 0.0, 0.0, 0.0, 0.0, 0.0, 0.0, 0.0)",0.017,-0.006999999999999999,0.005000000000000001,"(1.2184696791468346e-07, 0.0, 0.0, 0.0, 1.2184696791468346e-07, 0.0, 0.0, 0.0, 1.2184696791468346e-07)",-1.3925443,0.1372931000000012,9.65955025,"(8.999999999999999e-08, 0.0, 0.0, 0.0, 8.999999999999999e-08, 0.0, 0.0, 0.0, 8.999999999999999e-08)"
2025/07/05/17:44:41.881607,7531,1751712281,880805632,base_link,0.0,0.0,0.0,0.0,"(-1.0, 0.0, 0.0, 0.0, 0.0, 0.0, 0.0, 0.0, 0.0)",0.031,-0.009999999999999998,0.011000000000000001,"(1.2184696791468346e-07, 0.0, 0.0, 0.0, 1.2184696791468346e-07, 0.0, 0.0, 0.0, 1.2184696791468346e-07)",-1.3925443,0.1470997500000012,9.65955025,"(8.999999999999999e-08, 0.0, 0.0, 0.0, 8.999999999999999e-08, 0.0, 0.0, 0.0, 8.999999999999999e-08)"
2025/07/05/17:44:42.003719,7532,1751712282,2338632,base_link,0.0,0.0,0.0,0.0,"(-1.0, 0.0, 0.0, 0.0, 0.0, 0.0, 0.0, 0.0, 0.0)",0.025,-0.004999999999999999,0.01,"(1.2184696791468346e-07, 0.0, 0.0, 0.0, 1.2184696791468346e-07, 0.0, 0.0, 0.0, 1.2184696791468346e-07)",-1.3925443,0.1765197000000012,9.67916355,"(8.999999999999999e-08, 0.0, 0.0, 0.0, 8.999999999999999e-08, 0.0, 0.0, 0.0, 8.999999999999999e-08)"
2025/07/05/17:44:42.061835,7533,1751712282,60971632,base_link,0.0,0.0,0.0,0.0,"(-1.0, 0.0, 0.0, 0.0, 0.0, 0.0, 0.0, 0.0, 0.0)",0.017,-0.002999999999999999,0.006,"(1.2184696791468346e-07, 0.0, 0.0, 0.0, 1.2184696791468346e-07, 0.0, 0.0, 0.0, 1.2184696791468346e-07)",-1.40235095,0.1765197000000012,9.6693569,"(8.999999999999999e-08, 0.0, 0.0, 0.0, 8.999999999999999e-08, 0.0, 0.0, 0.0, 8.999999999999999e-08)"
2025/07/05/17:44:42.181461,7534,1751712282,180408984,base_link,0.0,0.0,0.0,0.0,"(-1.0, 0.0, 0.0, 0.0, 0.0, 0.0, 0.0, 0.0, 0.0)",0.009000000000000001,-0.0019999999999999996,0.0030000000000000005,"(1.2184696791468346e-07, 0.0, 0.0, 0.0, 1.2184696791468346e-07, 0.0, 0.0, 0.0, 1.2184696791468346e-07)",-1.40235095,0.1470997500000012,9.6497436,"(8.999999999999999e-08, 0.0, 0.0, 0.0, 8.999999999999999e-08, 0.0, 0.0, 0.0, 8.999999999999999e-08)"
2025/07/05/17:44:42.281866,7535,1751712282,280585568,base_link,0.0,0.0,0.0,0.0,"(-1.0, 0.0, 0.0, 0.0, 0.0, 0.0, 0.0, 0.0, 0.0)",0.014,-0.0009999999999999992,0.007,"(1.2184696791468346e-07, 0.0, 0.0, 0.0, 1.2184696791468346e-07, 0.0, 0.0, 0.0, 1.2184696791468346e-07)",-1.3925443,0.1470997500000012,9.6693569,"(8.999999999999999e-08, 0.0, 0.0, 0.0, 8.999999999999999e-08, 0.0, 0.0, 0.0, 8.999999999999999e-08)"
2025/07/05/17:44:42.362578,7536,1751712282,361607176,base_link,0.0,0.0,0.0,0.0,"(-1.0, 0.0, 0.0, 0.0, 0.0, 0.0, 0.0, 0.0, 0.0)",0.013000000000000001,1.102182119232618e-18,0.009000000000000001,"(1.2184696791468346e-07, 0.0, 0.0, 0.0, 1.2184696791468346e-07, 0.0, 0.0, 0.0, 1.2184696791468346e-07)",-1.3925443,0.1569064000000012,9.6693569,"(8.999999999999999e-08, 0.0, 0.0, 0.0, 8.999999999999999e-08, 0.0, 0.0, 0.0, 8.999999999999999e-08)"
2025/07/05/17:44:42.541711,7537,1751712282,540536176,base_link,0.0,0.0,0.0,0.0,"(-1.0, 0.0, 0.0, 0.0, 0.0, 0.0, 0.0, 0.0, 0.0)",0.002,2.4492935982947063e-19,0.002,"(1.2184696791468346e-07, 0.0, 0.0, 0.0, 1.2184696791468346e-07, 0.0, 0.0, 0.0, 1.2184696791468346e-07)",-1.38273765,0.1569064000000012,9.65955025,"(8.999999999999999e-08, 0.0, 0.0, 0.0, 8.999999999999999e-08, 0.0, 0.0, 0.0, 8.999999999999999e-08)"
2025/07/05/17:44:42.624991,7538,1751712282,624557528,base_link,0.0,0.0,0.0,0.0,"(-1.0, 0.0, 0.0, 0.0, 0.0, 0.0, 0.0, 0.0, 0.0)",0.005,-0.002,0.0010000000000000002,"(1.2184696791468346e-07, 0.0, 0.0, 0.0, 1.2184696791468346e-07, 0.0, 0.0, 0.0, 1.2184696791468346e-07)",-1.3925443,0.1372931000000012,9.6693569,"(8.999999999999999e-08, 0.0, 0.0, 0.0, 8.999999999999999e-08, 0.0, 0.0, 0.0, 8.999999999999999e-08)"
2025/07/05/17:44:42.703423,7539,1751712282,702119528,base_link,0.0,0.0,0.0,0.0,"(-1.0, 0.0, 0.0, 0.0, 0.0, 0.0, 0.0, 0.0, 0.0)",0.015,-0.005999999999999999,0.004000000000000001,"(1.2184696791468346e-07, 0.0, 0.0, 0.0, 1.2184696791468346e-07, 0.0, 0.0, 0.0, 1.2184696791468346e-07)",-1.40235095,0.1274864500000012,9.6497436,"(8.999999999999999e-08, 0.0, 0.0, 0.0, 8.999999999999999e-08, 0.0, 0.0, 0.0, 8.999999999999999e-08)"
2025/07/05/17:44:42.803617,7540,1751712282,802107528,base_link,0.0,0.0,0.0,0.0,"(-1.0, 0.0, 0.0, 0.0, 0.0, 0.0, 0.0, 0.0, 0.0)",0.025,-0.009,0.011000000000000001,"(1.2184696791468346e-07, 0.0, 0.0, 0.0, 1.2184696791468346e-07, 0.0, 0.0, 0.0, 1.2184696791468346e-07)",-1.3925443,0.1569064000000012,9.6497436,"(8.999999999999999e-08, 0.0, 0.0, 0.0, 8.999999999999999e-08, 0.0, 0.0, 0.0, 8.999999999999999e-08)"
2025/07/05/17:44:42.861822,7541,1751712282,861182528,base_link,0.0,0.0,0.0,0.0,"(-1.0, 0.0, 0.0, 0.0, 0.0, 0.0, 0.0, 0.0, 0.0)",0.026000000000000002,-0.009,0.012000000000000002,"(1.2184696791468346e-07, 0.0, 0.0, 0.0, 1.2184696791468346e-07, 0.0, 0.0, 0.0, 1.2184696791468346e-07)",-1.3925443,0.1667130500000012,9.65955025,"(8.999999999999999e-08, 0.0, 0.0, 0.0, 8.999999999999999e-08, 0.0, 0.0, 0.0, 8.999999999999999e-08)"
2025/07/05/17:44:42.981692,7542,1751712282,980604528,base_link,0.0,0.0,0.0,0.0,"(-1.0, 0.0, 0.0, 0.0, 0.0, 0.0, 0.0, 0.0, 0.0)",0.022,-0.0019999999999999987,0.009000000000000001,"(1.2184696791468346e-07, 0.0, 0.0, 0.0, 1.2184696791468346e-07, 0.0, 0.0, 0.0, 1.2184696791468346e-07)",-1.38273765,0.1667130500000012,9.67916355,"(8.999999999999999e-08, 0.0, 0.0, 0.0, 8.999999999999999e-08, 0.0, 0.0, 0.0, 8.999999999999999e-08)"
2025/07/05/17:44:43.081774,7543,1751712283,80602112,base_link,0.0,0.0,0.0,0.0,"(-1.0, 0.0, 0.0, 0.0, 0.0, 0.0, 0.0, 0.0, 0.0)",0.014,0.002000000000000001,0.006,"(1.2184696791468346e-07, 0.0, 0.0, 0.0, 1.2184696791468346e-07, 0.0, 0.0, 0.0, 1.2184696791468346e-07)",-1.3925443,0.1470997500000012,9.65955025,"(8.999999999999999e-08, 0.0, 0.0, 0.0, 8.999999999999999e-08, 0.0, 0.0, 0.0, 8.999999999999999e-08)"
2025/07/05/17:44:43.182288,7544,1751712283,180885112,base_link,0.0,0.0,0.0,0.0,"(-1.0, 0.0, 0.0, 0.0, 0.0, 0.0, 0.0, 0.0, 0.0)",0.005,0.0010000000000000007,0.006,"(1.2184696791468346e-07, 0.0, 0.0, 0.0, 1.2184696791468346e-07, 0.0, 0.0, 0.0, 1.2184696791468346e-07)",-1.3925443,0.1569064000000012,9.65955025,"(8.999999999999999e-08, 0.0, 0.0, 0.0, 8.999999999999999e-08, 0.0, 0.0, 0.0, 8.999999999999999e-08)"
2025/07/05/17:44:43.283350,7545,1751712283,280627112,base_link,0.0,0.0,0.0,0.0,"(-1.0, 0.0, 0.0, 0.0, 0.0, 0.0, 0.0, 0.0, 0.0)",0.0,-0.0009999999999999992,0.007,"(1.2184696791468346e-07, 0.0, 0.0, 0.0, 1.2184696791468346e-07, 0.0, 0.0, 0.0, 1.2184696791468346e-07)",-1.4121576,0.1765197000000012,9.6693569,"(8.999999999999999e-08, 0.0, 0.0, 0.0, 8.999999999999999e-08, 0.0, 0.0, 0.0, 8.999999999999999e-08)"
2025/07/05/17:44:43.404012,7546,1751712283,402416112,base_link,0.0,0.0,0.0,0.0,"(-1.0, 0.0, 0.0, 0.0, 0.0, 0.0, 0.0, 0.0, 0.0)",0.006,-0.004999999999999999,0.006000000000000001,"(1.2184696791468346e-07, 0.0, 0.0, 0.0, 1.2184696791468346e-07, 0.0, 0.0, 0.0, 1.2184696791468346e-07)",-1.3925443,0.1470997500000012,9.6497436,"(8.999999999999999e-08, 0.0, 0.0, 0.0, 8.999999999999999e-08, 0.0, 0.0, 0.0, 8.999999999999999e-08)"
