time,.header.seq,.header.stamp.secs,.header.stamp.nsecs,.header.frame_id,.orientation.x,.orientation.y,.orientation.z,.orientation.w,.orientation_covariance,.angular_velocity.x,.angular_velocity.y,.angular_velocity.z,.angular_velocity_covariance,.linear_acceleration.x,.linear_acceleration.y,.linear_acceleration.z,.linear_acceleration_covariance
2025/07/05/17:44:13.305084,7261,1751712253,278540352,base_link,0.04739217200733256,-0.04955308406723787,-0.8080883945083868,-0.5850569378724694,"(1.0, 0.0, 0.0, 0.0, 1.0, 0.0, 0.0, 0.0, 1.0)",0.050090543925762177,0.00469380151480437,0.059499915689229965,"(1.2184696791468346e-07, 0.0, 0.0, 0.0, 1.2184696791468346e-07, 0.0, 0.0, 0.0, 1.2184696791468346e-07)",-1.4121576,0.1569064000000012,9.6889702,"(8.999999999999999e-08, 0.0, 0.0, 0.0, 8.999999999999999e-08, 0.0, 0.0, 0.0, 8.999999999999999e-08)"
2025/07/05/17:44:13.403949,7262,1751712253,399548544,base_link,0.047501254327954275,-0.05054697968649939,-0.8094963250485459,-0.5830131502931496,"(1.0, 0.0, 0.0, 0.0, 1.0, 0.0, 0.0, 0.0, 1.0)",0.009537645615637302,0.011190029792487627,0.03996887803077698,"(1.2184696791468346e-07, 0.0, 0.0, 0.0, 1.2184696791468346e-07, 0.0, 0.0, 0.0, 1.2184696791468346e-07)",-1.3925443,0.1961330000000012,9.6889702,"(8.999999999999999e-08, 0.0, 0.0, 0.0, 8.999999999999999e-08, 0.0, 0.0, 0.0, 8.999999999999999e-08)"
2025/07/05/17:44:13.562872,7263,1751712253,558564160,base_link,0.04707315177501695,-0.05248613534063549,-0.8088288728707265,-0.5838023453101578,"(1.0, 0.0, 0.0, 0.0, 1.0, 0.0, 0.0, 0.0, 1.0)",0.027201686054468155,0.00841787829995155,-0.021758118644356728,"(1.2184696791468346e-07, 0.0, 0.0, 0.0, 1.2184696791468346e-07, 0.0, 0.0, 0.0, 1.2184696791468346e-07)",-1.38273765,0.43149260000000117,9.6693569,"(8.999999999999999e-08, 0.0, 0.0, 0.0, 8.999999999999999e-08, 0.0, 0.0, 0.0, 8.999999999999999e-08)"
2025/07/05/17:44:13.663821,7264,1751712253,659573888,base_link,0.04755659493633993,-0.05138077065008003,-0.8078938602629534,-0.5851545925948869,"(1.0, 0.0, 0.0, 0.0, 1.0, 0.0, 0.0, 0.0, 1.0)",-0.017845118418335915,-0.005024480633437638,-0.03644620627164841,"(1.2184696791468346e-07, 0.0, 0.0, 0.0, 1.2184696791468346e-07, 0.0, 0.0, 0.0, 1.2184696791468346e-07)",-1.40235095,0.25497290000000117,9.60071035,"(8.999999999999999e-08, 0.0, 0.0, 0.0, 8.999999999999999e-08, 0.0, 0.0, 0.0, 8.999999999999999e-08)"
2025/07/05/17:44:13.763057,7265,1751712253,758580032,base_link,0.04838305258871069,-0.04879793114439782,-0.8067777626273898,-0.5868453662321683,"(1.0, 0.0, 0.0, 0.0, 1.0, 0.0, 0.0, 0.0, 1.0)",-0.048516929149627686,-0.017032090574502952,-0.04450508952140808,"(1.2184696791468346e-07, 0.0, 0.0, 0.0, 1.2184696791468346e-07, 0.0, 0.0, 0.0, 1.2184696791468346e-07)",-1.3533177,0.1961330000000012,9.6301303,"(8.999999999999999e-08, 0.0, 0.0, 0.0, 8.999999999999999e-08, 0.0, 0.0, 0.0, 8.999999999999999e-08)"
2025/07/05/17:44:13.862941,7266,1751712253,858580032,base_link,0.04889889029382628,-0.04706069765370475,-0.8053219929666002,-0.5889402999529597,"(1.0, 0.0, 0.0, 0.0, 1.0, 0.0, 0.0, 0.0, 1.0)",-0.032561492174863815,-0.014552284032106406,-0.0545208640396595,"(1.2184696791468346e-07, 0.0, 0.0, 0.0, 1.2184696791468346e-07, 0.0, 0.0, 0.0, 1.2184696791468346e-07)",-1.38273765,0.2157463000000012,9.6693569,"(8.999999999999999e-08, 0.0, 0.0, 0.0, 8.999999999999999e-08, 0.0, 0.0, 0.0, 8.999999999999999e-08)"
2025/07/05/17:44:13.982094,7267,1751712253,978586944,base_link,0.04871701531655393,-0.047154322090830404,-0.8031965781016521,-0.5918432049560068,"(1.0, 0.0, 0.0, 0.0, 1.0, 0.0, 0.0, 0.0, 1.0)",0.007523084059357643,-0.00038171769119799896,-0.06186039373278618,"(1.2184696791468346e-07, 0.0, 0.0, 0.0, 1.2184696791468346e-07, 0.0, 0.0, 0.0, 1.2184696791468346e-07)",-1.372931,0.1667130500000012,9.69877685,"(8.999999999999999e-08, 0.0, 0.0, 0.0, 8.999999999999999e-08, 0.0, 0.0, 0.0, 8.999999999999999e-08)"
2025/07/05/17:44:14.062704,7268,1751712254,58592576,base_link,0.04862029396377315,-0.04805952174773448,-0.8016801711957305,-0.593830996577174,"(1.0, 0.0, 0.0, 0.0, 1.0, 0.0, 0.0, 0.0, 1.0)",0.025448646396398544,0.008823568001389497,-0.06317910552024841,"(1.2184696791468346e-07, 0.0, 0.0, 0.0, 1.2184696791468346e-07, 0.0, 0.0, 0.0, 1.2184696791468346e-07)",-1.3337044,0.1863263500000012,9.69877685,"(8.999999999999999e-08, 0.0, 0.0, 0.0, 8.999999999999999e-08, 0.0, 0.0, 0.0, 8.999999999999999e-08)"
2025/07/05/17:44:14.162239,7269,1751712254,158597184,base_link,0.047768274680306796,-0.049386722614431756,-0.7997448623783032,-0.5963952537227143,"(1.0, 0.0, 0.0, 0.0, 1.0, 0.0, 0.0, 0.0, 1.0)",0.035455573350191116,0.005793916061520569,-0.06304968893527985,"(1.2184696791468346e-07, 0.0, 0.0, 0.0, 1.2184696791468346e-07, 0.0, 0.0, 0.0, 1.2184696791468346e-07)",-1.34351105,0.1569064000000012,9.65955025,"(8.999999999999999e-08, 0.0, 0.0, 0.0, 8.999999999999999e-08, 0.0, 0.0, 0.0, 8.999999999999999e-08)"
2025/07/05/17:44:14.262722,7270,1751712254,258604864,base_link,0.04490496530300175,-0.051943982973188946,-0.7972327015101378,-0.5997544383886333,"(1.0, 0.0, 0.0, 0.0, 1.0, 0.0, 0.0, 0.0, 1.0)",0.0702476054430008,-0.014535050839185725,-0.07899649441242218,"(1.2184696791468346e-07, 0.0, 0.0, 0.0, 1.2184696791468346e-07, 0.0, 0.0, 0.0, 1.2184696791468346e-07)",-0.8825985000000001,0.2843928500000012,9.65955025,"(8.999999999999999e-08, 0.0, 0.0, 0.0, 8.999999999999999e-08, 0.0, 0.0, 0.0, 8.999999999999999e-08)"
2025/07/05/17:44:14.363208,7271,1751712254,358609728,base_link,0.04152139362061101,-0.05529649350029712,-0.7930791226764617,-0.6051807803070975,"(1.0, 0.0, 0.0, 0.0, 1.0, 0.0, 0.0, 0.0, 1.0)",0.1138821691274643,-0.019956378266215342,-0.12835074961185455,"(1.2184696791468346e-07, 0.0, 0.0, 0.0, 1.2184696791468346e-07, 0.0, 0.0, 0.0, 1.2184696791468346e-07)",-0.77472535,0.49033250000000117,9.73800345,"(8.999999999999999e-08, 0.0, 0.0, 0.0, 8.999999999999999e-08, 0.0, 0.0, 0.0, 8.999999999999999e-08)"
2025/07/05/17:44:14.562924,7272,1751712254,558623808,base_link,0.045947706902170565,-0.051067741108255675,-0.7844363033621145,-0.6163932024415203,"(1.0, 0.0, 0.0, 0.0, 1.0, 0.0, 0.0, 0.0, 1.0)",-0.10570719838142395,0.014075412414967996,-0.14554931223392487,"(1.2184696791468346e-07, 0.0, 0.0, 0.0, 1.2184696791468346e-07, 0.0, 0.0, 0.0, 1.2184696791468346e-07)",-1.4513842000000001,0.1765197000000012,9.67916355,"(8.999999999999999e-08, 0.0, 0.0, 0.0, 8.999999999999999e-08, 0.0, 0.0, 0.0, 8.999999999999999e-08)"
2025/07/05/17:44:14.642518,7273,1751712254,638623808,base_link,0.049426849704298455,-0.04762128104097591,-0.7813220241025767,-0.6203427236395844,"(1.0, 0.0, 0.0, 0.0, 1.0, 0.0, 0.0, 0.0, 1.0)",-0.12603063881397247,0.016480457037687284,-0.13929274678230286,"(1.2184696791468346e-07, 0.0, 0.0, 0.0, 1.2184696791468346e-07, 0.0, 0.0, 0.0, 1.2184696791468346e-07)",-1.5102241,0.11767980000000118,9.67916355,"(8.999999999999999e-08, 0.0, 0.0, 0.0, 8.999999999999999e-08, 0.0, 0.0, 0.0, 8.999999999999999e-08)"
2025/07/05/17:44:14.742268,7274,1751712254,738629696,base_link,0.05181437600643625,-0.04534463981079964,-0.777636184292914,-0.6249328755617275,"(1.0, 0.0, 0.0, 0.0, 1.0, 0.0, 0.0, 0.0, 1.0)",-0.06444963067770004,0.010424315929412826,-0.1262570470571518,"(1.2184696791468346e-07, 0.0, 0.0, 0.0, 1.2184696791468346e-07, 0.0, 0.0, 0.0, 1.2184696791468346e-07)",-1.4513842000000001,0.03922660000000119,9.65955025,"(8.999999999999999e-08, 0.0, 0.0, 0.0, 8.999999999999999e-08, 0.0, 0.0, 0.0, 8.999999999999999e-08)"
2025/07/05/17:44:14.842308,7275,1751712254,838636352,base_link,0.051530392092437635,-0.045775301875059425,-0.7745831246694658,-0.6287051959434831,"(1.0, 0.0, 0.0, 0.0, 1.0, 0.0, 0.0, 0.0, 1.0)",0.013765170238912106,0.0011997851543128367,-0.10132189095020294,"(1.2184696791468346e-07, 0.0, 0.0, 0.0, 1.2184696791468346e-07, 0.0, 0.0, 0.0, 1.2184696791468346e-07)",-1.4317709,-0.029419949999998817,9.65955025,"(8.999999999999999e-08, 0.0, 0.0, 0.0, 8.999999999999999e-08, 0.0, 0.0, 0.0, 8.999999999999999e-08)"
2025/07/05/17:44:14.942724,7276,1751712254,938642496,base_link,0.0492146754109921,-0.04835872954311017,-0.7721098520470577,-0.6317323209817888,"(1.0, 0.0, 0.0, 0.0, 1.0, 0.0, 0.0, 0.0, 1.0)",0.07318834960460663,-0.0027075372636318302,-0.07744685560464859,"(1.2184696791468346e-07, 0.0, 0.0, 0.0, 1.2184696791468346e-07, 0.0, 0.0, 0.0, 1.2184696791468346e-07)",-1.4317709,-0.049033249999998814,9.6693569,"(8.999999999999999e-08, 0.0, 0.0, 0.0, 8.999999999999999e-08, 0.0, 0.0, 0.0, 8.999999999999999e-08)"
2025/07/05/17:44:15.042552,7277,1751712255,38649152,base_link,0.04625093110418143,-0.05190505424848324,-0.770012976343632,-0.6342292432377108,"(1.0, 0.0, 0.0, 0.0, 1.0, 0.0, 0.0, 0.0, 1.0)",0.09877452254295349,-0.0010214555077254848,-0.0625181719660759,"(1.2184696791468346e-07, 0.0, 0.0, 0.0, 1.2184696791468346e-07, 0.0, 0.0, 0.0, 1.2184696791468346e-07)",-1.4317709,0.03922660000000119,9.6497436,"(8.999999999999999e-08, 0.0, 0.0, 0.0, 8.999999999999999e-08, 0.0, 0.0, 0.0, 8.999999999999999e-08)"
2025/07/05/17:44:15.142438,7278,1751712255,138655296,base_link,0.04393518926905953,-0.054693593493020595,-0.7681775837831128,-0.6363815755879886,"(1.0, 0.0, 0.0, 0.0, 1.0, 0.0, 0.0, 0.0, 1.0)",0.08140432834625244,0.00020732171833514492,-0.0551307238638401,"(1.2184696791468346e-07, 0.0, 0.0, 0.0, 1.2184696791468346e-07, 0.0, 0.0, 0.0, 1.2184696791468346e-07)",-1.4317709,0.08825985000000118,9.6497436,"(8.999999999999999e-08, 0.0, 0.0, 0.0, 8.999999999999999e-08, 0.0, 0.0, 0.0, 8.999999999999999e-08)"
2025/07/05/17:44:15.243659,7279,1751712255,238661184,base_link,0.04307713452888998,-0.055552485625528725,-0.7664944548997938,-0.6383921462780328,"(1.0, 0.0, 0.0, 0.0, 1.0, 0.0, 0.0, 0.0, 1.0)",0.033210184425115585,-0.0018965867348015373,-0.05384653061628342,"(1.2184696791468346e-07, 0.0, 0.0, 0.0, 1.2184696791468346e-07, 0.0, 0.0, 0.0, 1.2184696791468346e-07)",-1.44157755,0.1667130500000012,9.6301303,"(8.999999999999999e-08, 0.0, 0.0, 0.0, 8.999999999999999e-08, 0.0, 0.0, 0.0, 8.999999999999999e-08)"
2025/07/05/17:44:15.344117,7280,1751712255,338667328,base_link,0.04360112800863066,-0.05450442669323356,-0.7648086256291076,-0.6404654364370749,"(1.0, 0.0, 0.0, 0.0, 1.0, 0.0, 0.0, 0.0, 1.0)",-0.01633652113378048,-0.005425623618066318,-0.058021627366542816,"(1.2184696791468346e-07, 0.0, 0.0, 0.0, 1.2184696791468346e-07, 0.0, 0.0, 0.0, 1.2184696791468346e-07)",-1.4513842000000001,0.1961330000000012,9.62032365,"(8.999999999999999e-08, 0.0, 0.0, 0.0, 8.999999999999999e-08, 0.0, 0.0, 0.0, 8.999999999999999e-08)"
2025/07/05/17:44:15.503603,7281,1751712255,499683200,base_link,0.04534441898593499,-0.051301661862811654,-0.761859750272356,-0.6441131453959663,"(1.0, 0.0, 0.0, 0.0, 1.0, 0.0, 0.0, 0.0, 1.0)",-0.04149918630719185,-0.010305475443601617,-0.0668443813920021,"(1.2184696791468346e-07, 0.0, 0.0, 0.0, 1.2184696791468346e-07, 0.0, 0.0, 0.0, 1.2184696791468346e-07)",-1.4317709,0.2059396500000012,9.639936950000001,"(8.999999999999999e-08, 0.0, 0.0, 0.0, 8.999999999999999e-08, 0.0, 0.0, 0.0, 8.999999999999999e-08)"
2025/07/05/17:44:15.604969,7282,1751712255,600688320,base_link,0.04613079147780195,-0.04980658638378241,-0.7598721040456285,-0.646518089092406,"(1.0, 0.0, 0.0, 0.0, 1.0, 0.0, 0.0, 0.0, 1.0)",-0.03010755032300949,-0.008525302633643159,-0.0684802308678627,"(1.2184696791468346e-07, 0.0, 0.0, 0.0, 1.2184696791468346e-07, 0.0, 0.0, 0.0, 1.2184696791468346e-07)",-1.44157755,0.1470997500000012,9.65955025,"(8.999999999999999e-08, 0.0, 0.0, 0.0, 8.999999999999999e-08, 0.0, 0.0, 0.0, 8.999999999999999e-08)"
2025/07/05/17:44:15.682462,7283,1751712255,678696768,base_link,0.04599655228131813,-0.04953456613817162,-0.7582852246558387,-0.6484089465795327,"(1.0, 0.0, 0.0, 0.0, 1.0, 0.0, 0.0, 0.0, 1.0)",-0.00767561886459589,-0.004321943502873191,-0.06801781803369522,"(1.2184696791468346e-07, 0.0, 0.0, 0.0, 1.2184696791468346e-07, 0.0, 0.0, 0.0, 1.2184696791468346e-07)",-1.4317709,0.11767980000000118,9.6889702,"(8.999999999999999e-08, 0.0, 0.0, 0.0, 8.999999999999999e-08, 0.0, 0.0, 0.0, 8.999999999999999e-08)"
2025/07/05/17:44:15.782297,7284,1751712255,778704960,base_link,0.044193681258559825,-0.0504795417129311,-0.7562073561672724,-0.6508833757930627,"(1.0, 0.0, 0.0, 0.0, 1.0, 0.0, 0.0, 0.0, 1.0)",0.041997168213129044,-0.015742538496851928,-0.06401357054710388,"(1.2184696791468346e-07, 0.0, 0.0, 0.0, 1.2184696791468346e-07, 0.0, 0.0, 0.0, 1.2184696791468346e-07)",-1.14737805,0.1470997500000012,9.6497436,"(8.999999999999999e-08, 0.0, 0.0, 0.0, 8.999999999999999e-08, 0.0, 0.0, 0.0, 8.999999999999999e-08)"
2025/07/05/17:44:15.903644,7285,1751712255,899712640,base_link,0.04029913959232719,-0.05430399207686765,-0.7527085021625084,-0.654871717640109,"(1.0, 0.0, 0.0, 0.0, 1.0, 0.0, 0.0, 0.0, 1.0)",0.10053285956382751,-0.010771456174552451,-0.0857352614402771,"(1.2184696791468346e-07, 0.0, 0.0, 0.0, 1.2184696791468346e-07, 0.0, 0.0, 0.0, 1.2184696791468346e-07)",-0.89240515,0.3040061500000012,9.73800345,"(8.999999999999999e-08, 0.0, 0.0, 0.0, 8.999999999999999e-08, 0.0, 0.0, 0.0, 8.999999999999999e-08)"
2025/07/05/17:44:16.003855,7286,1751712256,718272,base_link,0.039393038229074875,-0.055970436031709175,-0.7494157638961221,-0.6585525883735442,"(1.0, 0.0, 0.0, 0.0, 1.0, 0.0, 0.0, 0.0, 1.0)",0.054365064948797226,0.009079598821699607,-0.10025698691606522,"(1.2184696791468346e-07, 0.0, 0.0, 0.0, 1.2184696791468346e-07, 0.0, 0.0, 0.0, 1.2184696791468346e-07)",-1.1571847,0.2255529500000012,9.7281968,"(8.999999999999999e-08, 0.0, 0.0, 0.0, 8.999999999999999e-08, 0.0, 0.0, 0.0, 8.999999999999999e-08)"
2025/07/05/17:44:16.083623,7287,1751712256,78725440,base_link,0.04066918226293289,-0.055970852071551204,-0.746507655217563,-0.6617700522341765,"(1.0, 0.0, 0.0, 0.0, 1.0, 0.0, 0.0, 0.0, 1.0)",-0.003989848308265209,0.01949219964444636,-0.11115141212940216,"(1.2184696791468346e-07, 0.0, 0.0, 0.0, 1.2184696791468346e-07, 0.0, 0.0, 0.0, 1.2184696791468346e-07)",-1.34351105,0.2451662500000012,9.6889702,"(8.999999999999999e-08, 0.0, 0.0, 0.0, 8.999999999999999e-08, 0.0, 0.0, 0.0, 8.999999999999999e-08)"
2025/07/05/17:44:16.182698,7288,1751712256,178732864,base_link,0.04312938901744654,-0.05442575116964298,-0.7428367929584374,-0.6658612411304817,"(1.0, 0.0, 0.0, 0.0, 1.0, 0.0, 0.0, 0.0, 1.0)",-0.048315007239580154,0.016607845202088342,-0.11729436367750168,"(1.2184696791468346e-07, 0.0, 0.0, 0.0, 1.2184696791468346e-07, 0.0, 0.0, 0.0, 1.2184696791468346e-07)",-1.30428445,0.1863263500000012,9.6497436,"(8.999999999999999e-08, 0.0, 0.0, 0.0, 8.999999999999999e-08, 0.0, 0.0, 0.0, 8.999999999999999e-08)"
2025/07/05/17:44:16.262420,7289,1751712256,258740544,base_link,0.04441788020136558,-0.05290250169767563,-0.7399190118907246,-0.6691399204017036,"(1.0, 0.0, 0.0, 0.0, 1.0, 0.0, 0.0, 0.0, 1.0)",-0.04679175093770027,0.0033113188110291815,-0.11707038432359695,"(1.2184696791468346e-07, 0.0, 0.0, 0.0, 1.2184696791468346e-07, 0.0, 0.0, 0.0, 1.2184696791468346e-07)",-1.28467115,0.1765197000000012,9.610517,"(8.999999999999999e-08, 0.0, 0.0, 0.0, 8.999999999999999e-08, 0.0, 0.0, 0.0, 8.999999999999999e-08)"
2025/07/05/17:44:16.362996,7290,1751712256,358746688,base_link,0.045084092932613506,-0.05160285125955123,-0.7364057995983079,-0.6730609694703034,"(1.0, 0.0, 0.0, 0.0, 1.0, 0.0, 0.0, 0.0, 1.0)",-0.020341377705335617,-0.006941952742636218,-0.11146456003189087,"(1.2184696791468346e-07, 0.0, 0.0, 0.0, 1.2184696791468346e-07, 0.0, 0.0, 0.0, 1.2184696791468346e-07)",-1.50041745,0.1372931000000012,9.639936950000001,"(8.999999999999999e-08, 0.0, 0.0, 0.0, 8.999999999999999e-08, 0.0, 0.0, 0.0, 8.999999999999999e-08)"
2025/07/05/17:44:16.544478,7291,1751712256,538753600,base_link,0.04475959654167094,-0.05186092590997548,-0.7309429591118669,-0.6789914678447548,"(1.0, 0.0, 0.0, 0.0, 1.0, 0.0, 0.0, 0.0, 1.0)",0.01468178816139698,-8.501717820764656e-05,-0.08717116713523865,"(1.2184696791468346e-07, 0.0, 0.0, 0.0, 1.2184696791468346e-07, 0.0, 0.0, 0.0, 1.2184696791468346e-07)",-1.5298374,1.18055179297998e-15,9.639936950000001,"(8.999999999999999e-08, 0.0, 0.0, 0.0, 8.999999999999999e-08, 0.0, 0.0, 0.0, 8.999999999999999e-08)"
2025/07/05/17:44:16.626275,7292,1751712256,622759744,base_link,0.04415534091927906,-0.052814946180575285,-0.7288199451725947,-0.6812359171732366,"(1.0, 0.0, 0.0, 0.0, 1.0, 0.0, 0.0, 0.0, 1.0)",0.029848434031009674,0.003215855918824663,-0.07924925535917282,"(1.2184696791468346e-07, 0.0, 0.0, 0.0, 1.2184696791468346e-07, 0.0, 0.0, 0.0, 1.2184696791468346e-07)",-1.48080415,0.03922660000000119,9.67916355,"(8.999999999999999e-08, 0.0, 0.0, 0.0, 8.999999999999999e-08, 0.0, 0.0, 0.0, 8.999999999999999e-08)"
2025/07/05/17:44:16.704494,7293,1751712256,699767680,base_link,0.04225422033923621,-0.0535165567933917,-0.7269766909233825,-0.6832682122465465,"(1.0, 0.0, 0.0, 0.0, 1.0, 0.0, 0.0, 0.0, 1.0)",0.04761588200926781,-0.012920456938445577,-0.0715775117278099,"(1.2184696791468346e-07, 0.0, 0.0, 0.0, 1.2184696791468346e-07, 0.0, 0.0, 0.0, 1.2184696791468346e-07)",-1.3337044,1.1829537294865517e-15,9.65955025,"(8.999999999999999e-08, 0.0, 0.0, 0.0, 8.999999999999999e-08, 0.0, 0.0, 0.0, 8.999999999999999e-08)"
2025/07/05/17:44:16.805331,7294,1751712256,800775872,base_link,0.038163254561833435,-0.055629595841602514,-0.7239772437106203,-0.6865171990976788,"(1.0, 0.0, 0.0, 0.0, 1.0, 0.0, 0.0, 0.0, 1.0)",0.09317275881767273,-0.03166825696825982,-0.08359219133853912,"(1.2184696791468346e-07, 0.0, 0.0, 0.0, 1.2184696791468346e-07, 0.0, 0.0, 0.0, 1.2184696791468346e-07)",-0.77472535,0.1274864500000012,9.6889702,"(8.999999999999999e-08, 0.0, 0.0, 0.0, 8.999999999999999e-08, 0.0, 0.0, 0.0, 8.999999999999999e-08)"
2025/07/05/17:44:16.883047,7295,1751712256,878782528,base_link,0.03544596349830686,-0.057474749020685834,-0.720982327216172,-0.6896555087423276,"(1.0, 0.0, 0.0, 0.0, 1.0, 0.0, 0.0, 0.0, 1.0)",0.0941850021481514,-0.022749055176973357,-0.10158771276473999,"(1.2184696791468346e-07, 0.0, 0.0, 0.0, 1.2184696791468346e-07, 0.0, 0.0, 0.0, 1.2184696791468346e-07)",-1.0983448,0.4216859500000012,9.80665,"(8.999999999999999e-08, 0.0, 0.0, 0.0, 8.999999999999999e-08, 0.0, 0.0, 0.0, 8.999999999999999e-08)"
2025/07/05/17:44:17.026097,7296,1751712257,21787904,base_link,0.03367732489338984,-0.05822729636326814,-0.7143346908789951,-0.6965639734820196,"(1.0, 0.0, 0.0, 0.0, 1.0, 0.0, 0.0, 0.0, 1.0)",0.03602222725749016,-0.011341985315084475,-0.14377856254577637,"(1.2184696791468346e-07, 0.0, 0.0, 0.0, 1.2184696791468346e-07, 0.0, 0.0, 0.0, 1.2184696791468346e-07)",-0.67665885,0.4216859500000012,9.7870367,"(8.999999999999999e-08, 0.0, 0.0, 0.0, 8.999999999999999e-08, 0.0, 0.0, 0.0, 8.999999999999999e-08)"
2025/07/05/17:44:17.124012,7297,1751712257,119794048,base_link,0.03492195414057575,-0.05712386449188477,-0.7086237371020092,-0.7024028192142305,"(1.0, 0.0, 0.0, 0.0, 1.0, 0.0, 0.0, 0.0, 1.0)",-0.019782209768891335,-0.0002053785137832373,-0.1699191778898239,"(1.2184696791468346e-07, 0.0, 0.0, 0.0, 1.2184696791468346e-07, 0.0, 0.0, 0.0, 1.2184696791468346e-07)",-1.1179581,0.3236194500000012,9.67916355,"(8.999999999999999e-08, 0.0, 0.0, 0.0, 8.999999999999999e-08, 0.0, 0.0, 0.0, 8.999999999999999e-08)"
2025/07/05/17:44:17.203477,7298,1751712257,200801728,base_link,0.03731612960904918,-0.05528822998617307,-0.7038436490171371,-0.7072162581800828,"(1.0, 0.0, 0.0, 0.0, 1.0, 0.0, 0.0, 0.0, 1.0)",-0.056842658668756485,0.004897180479019859,-0.17799969017505646,"(1.2184696791468346e-07, 0.0, 0.0, 0.0, 1.2184696791468346e-07, 0.0, 0.0, 0.0, 1.2184696791468346e-07)",-1.0787315,0.39226600000000117,9.73800345,"(8.999999999999999e-08, 0.0, 0.0, 0.0, 8.999999999999999e-08, 0.0, 0.0, 0.0, 8.999999999999999e-08)"
2025/07/05/17:44:17.283852,7299,1751712257,278808896,base_link,0.03954587734572168,-0.05358290336736995,-0.6989222045020814,-0.7120904072557297,"(1.0, 0.0, 0.0, 0.0, 1.0, 0.0, 0.0, 0.0, 1.0)",-0.06605026125907898,0.008889781311154343,-0.18026621639728546,"(1.2184696791468346e-07, 0.0, 0.0, 0.0, 1.2184696791468346e-07, 0.0, 0.0, 0.0, 1.2184696791468346e-07)",-1.0395049,0.11767980000000118,9.6301303,"(8.999999999999999e-08, 0.0, 0.0, 0.0, 8.999999999999999e-08, 0.0, 0.0, 0.0, 8.999999999999999e-08)"
2025/07/05/17:44:17.426292,7300,1751712257,422813760,base_link,0.04198424875221405,-0.052997172341114764,-0.6896656659438352,-0.7209645565482431,"(1.0, 0.0, 0.0, 0.0, 1.0, 0.0, 0.0, 0.0, 1.0)",-0.009956149384379387,0.017226254567503905,-0.18890932202339172,"(1.2184696791468346e-07, 0.0, 0.0, 0.0, 1.2184696791468346e-07, 0.0, 0.0, 0.0, 1.2184696791468346e-07)",-1.10815145,0.10787315000000118,9.73800345,"(8.999999999999999e-08, 0.0, 0.0, 0.0, 8.999999999999999e-08, 0.0, 0.0, 0.0, 8.999999999999999e-08)"
2025/07/05/17:44:17.582118,7301,1751712257,578826816,base_link,0.0412246673093173,-0.05455887309213807,-0.6790444286462469,-0.730905274366415,"(1.0, 0.0, 0.0, 0.0, 1.0, 0.0, 0.0, 0.0, 1.0)",0.04671093821525574,0.004376676399260737,-0.1873587667942047,"(1.2184696791468346e-07, 0.0, 0.0, 0.0, 1.2184696791468346e-07, 0.0, 0.0, 0.0, 1.2184696791468346e-07)",-1.22583125,-0.08825984999999882,9.6693569,"(8.999999999999999e-08, 0.0, 0.0, 0.0, 8.999999999999999e-08, 0.0, 0.0, 0.0, 8.999999999999999e-08)"
2025/07/05/17:44:17.663721,7302,1751712257,659833728,base_link,0.04044295071751373,-0.05505239175158306,-0.6740474288045281,-0.735522715911409,"(1.0, 0.0, 0.0, 0.0, 1.0, 0.0, 0.0, 0.0, 1.0)",0.04472065344452858,-0.0042669512331485965,-0.17887789011001587,"(1.2184696791468346e-07, 0.0, 0.0, 0.0, 1.2184696791468346e-07, 0.0, 0.0, 0.0, 1.2184696791468346e-07)",-1.2944778000000001,-0.06864654999999882,9.6889702,"(8.999999999999999e-08, 0.0, 0.0, 0.0, 8.999999999999999e-08, 0.0, 0.0, 0.0, 8.999999999999999e-08)"
2025/07/05/17:44:17.763189,7303,1751712257,758841920,base_link,0.039085598011250985,-0.05614580663102915,-0.6677787189617088,-0.7412095162150262,"(1.0, 0.0, 0.0, 0.0, 1.0, 0.0, 0.0, 0.0, 1.0)",0.04577066749334335,-0.0026916984934359997,-0.17013126611709595,"(1.2184696791468346e-07, 0.0, 0.0, 0.0, 1.2184696791468346e-07, 0.0, 0.0, 0.0, 1.2184696791468346e-07)",-1.36312435,0.10787315000000118,9.7085835,"(8.999999999999999e-08, 0.0, 0.0, 0.0, 8.999999999999999e-08, 0.0, 0.0, 0.0, 8.999999999999999e-08)"
2025/07/05/17:44:17.862933,7304,1751712257,858847808,base_link,0.03853453674727755,-0.05696565932184178,-0.6623793413467154,-0.7460051013852332,"(1.0, 0.0, 0.0, 0.0, 1.0, 0.0, 0.0, 0.0, 1.0)",0.03428390622138977,0.002883458975702506,-0.150180384516716,"(1.2184696791468346e-07, 0.0, 0.0, 0.0, 1.2184696791468346e-07, 0.0, 0.0, 0.0, 1.2184696791468346e-07)",-1.53964405,-0.06864654999999882,9.65955025,"(8.999999999999999e-08, 0.0, 0.0, 0.0, 8.999999999999999e-08, 0.0, 0.0, 0.0, 8.999999999999999e-08)"
2025/07/05/17:44:17.983926,7305,1751712257,978852928,base_link,0.038176845583163185,-0.05801534878135767,-0.6569623524175099,-0.7507178000241824,"(1.0, 0.0, 0.0, 0.0, 1.0, 0.0, 0.0, 0.0, 1.0)",0.024472087621688843,0.008886137977242454,-0.12246869504451752,"(1.2184696791468346e-07, 0.0, 0.0, 0.0, 1.2184696791468346e-07, 0.0, 0.0, 0.0, 1.2184696791468346e-07)",-1.57887065,1.1817527612332657e-15,9.6497436,"(8.999999999999999e-08, 0.0, 0.0, 0.0, 8.999999999999999e-08, 0.0, 0.0, 0.0, 8.999999999999999e-08)"
2025/07/05/17:44:18.062287,7306,1751712258,58858048,base_link,0.03809860552031786,-0.058609413894264537,-0.6538128649719603,-0.7534203146036978,"(1.0, 0.0, 0.0, 0.0, 1.0, 0.0, 0.0, 0.0, 1.0)",0.020891275256872177,0.010006401687860475,-0.1094367578625679,"(1.2184696791468346e-07, 0.0, 0.0, 0.0, 1.2184696791468346e-07, 0.0, 0.0, 0.0, 1.2184696791468346e-07)",-1.53964405,0.009806650000001178,9.62032365,"(8.999999999999999e-08, 0.0, 0.0, 0.0, 8.999999999999999e-08, 0.0, 0.0, 0.0, 8.999999999999999e-08)"
2025/07/05/17:44:18.162968,7307,1751712258,158863936,base_link,0.038022242005216686,-0.05902330116746182,-0.6500181988680523,-0.756668289392733,"(1.0, 0.0, 0.0, 0.0, 1.0, 0.0, 0.0, 0.0, 1.0)",0.015935219824314117,0.006689633242785918,-0.1038074940443039,"(1.2184696791468346e-07, 0.0, 0.0, 0.0, 1.2184696791468346e-07, 0.0, 0.0, 0.0, 1.2184696791468346e-07)",-1.5494507,0.06864655000000118,9.610517,"(8.999999999999999e-08, 0.0, 0.0, 0.0, 8.999999999999999e-08, 0.0, 0.0, 0.0, 8.999999999999999e-08)"
2025/07/05/17:44:18.242431,7308,1751712258,238863936,base_link,0.038021420959146,-0.05896466033960525,-0.6469847619101374,-0.7592682386583578,"(1.0, 0.0, 0.0, 0.0, 1.0, 0.0, 0.0, 0.0, 1.0)",0.009882957674562931,0.0010269812773913017,-0.10443026572465897,"(1.2184696791468346e-07, 0.0, 0.0, 0.0, 1.2184696791468346e-07, 0.0, 0.0, 0.0, 1.2184696791468346e-07)",-1.53964405,0.08825985000000118,9.610517,"(8.999999999999999e-08, 0.0, 0.0, 0.0, 8.999999999999999e-08, 0.0, 0.0, 0.0, 8.999999999999999e-08)"
2025/07/05/17:44:18.341877,7309,1751712258,338870592,base_link,0.03814673846185478,-0.05848933308156394,-0.6430640981087586,-0.7626220492379994,"(1.0, 0.0, 0.0, 0.0, 1.0, 0.0, 0.0, 0.0, 1.0)",0.0024106204509735107,-0.005135518033057464,-0.10838663578033447,"(1.2184696791468346e-07, 0.0, 0.0, 0.0, 1.2184696791468346e-07, 0.0, 0.0, 0.0, 1.2184696791468346e-07)",-1.5298374,0.08825985000000118,9.62032365,"(8.999999999999999e-08, 0.0, 0.0, 0.0, 8.999999999999999e-08, 0.0, 0.0, 0.0, 8.999999999999999e-08)"
2025/07/05/17:44:18.503394,7310,1751712258,499883904,base_link,0.037909937186945374,-0.05788734625546929,-0.6363353720633892,-0.7683027958213671,"(1.0, 0.0, 0.0, 0.0, 1.0, 0.0, 0.0, 0.0, 1.0)",0.008873764425516129,-0.007514640688896193,-0.11625777184963226,"(1.2184696791468346e-07, 0.0, 0.0, 0.0, 1.2184696791468346e-07, 0.0, 0.0, 0.0, 1.2184696791468346e-07)",-1.5298374,0.10787315000000118,9.65955025,"(8.999999999999999e-08, 0.0, 0.0, 0.0, 8.999999999999999e-08, 0.0, 0.0, 0.0, 8.999999999999999e-08)"
2025/07/05/17:44:18.628504,7311,1751712258,621889792,base_link,0.03740049481361245,-0.05767250748585788,-0.6312646044974232,-0.77251542636811,"(1.0, 0.0, 0.0, 0.0, 1.0, 0.0, 0.0, 0.0, 1.0)",0.01409680861979723,-0.00827892124652864,-0.11446765065193176,"(1.2184696791468346e-07, 0.0, 0.0, 0.0, 1.2184696791468346e-07, 0.0, 0.0, 0.0, 1.2184696791468346e-07)",-1.50041745,0.05883990000000119,9.639936950000001,"(8.999999999999999e-08, 0.0, 0.0, 0.0, 8.999999999999999e-08, 0.0, 0.0, 0.0, 8.999999999999999e-08)"
2025/07/05/17:44:18.704542,7312,1751712258,699897984,base_link,0.036825449566167484,-0.05749320098890531,-0.6281022153993591,-0.7751296827723191,"(1.0, 0.0, 0.0, 0.0, 1.0, 0.0, 0.0, 0.0, 1.0)",0.01579168625175953,-0.012064400129020228,-0.1088414192199707,"(1.2184696791468346e-07, 0.0, 0.0, 0.0, 1.2184696791468346e-07, 0.0, 0.0, 0.0, 1.2184696791468346e-07)",-1.48080415,0.03922660000000117,9.6301303,"(8.999999999999999e-08, 0.0, 0.0, 0.0, 8.999999999999999e-08, 0.0, 0.0, 0.0, 8.999999999999999e-08)"
2025/07/05/17:44:18.784335,7313,1751712258,778904384,base_link,0.0361863195042559,-0.05729168711126923,-0.6253034093199055,-0.7774341510131793,"(1.0, 0.0, 0.0, 0.0, 1.0, 0.0, 0.0, 0.0, 1.0)",0.016447454690933228,-0.014054190367460263,-0.09838949143886566,"(1.2184696791468346e-07, 0.0, 0.0, 0.0, 1.2184696791468346e-07, 0.0, 0.0, 0.0, 1.2184696791468346e-07)",-1.4709975,0.00980665000000118,9.6301303,"(8.999999999999999e-08, 0.0, 0.0, 0.0, 8.999999999999999e-08, 0.0, 0.0, 0.0, 8.999999999999999e-08)"
2025/07/05/17:44:18.862477,7314,1751712258,858910272,base_link,0.03555605852690639,-0.05718211173098219,-0.6230367316182863,-0.7792889091052305,"(1.0, 0.0, 0.0, 0.0, 1.0, 0.0, 0.0, 0.0, 1.0)",0.01564398780465126,-0.013103997334837924,-0.08228744566440582,"(1.2184696791468346e-07, 0.0, 0.0, 0.0, 1.2184696791468346e-07, 0.0, 0.0, 0.0, 1.2184696791468346e-07)",-1.4513842000000001,-0.02941994999999882,9.639936950000001,"(8.999999999999999e-08, 0.0, 0.0, 0.0, 8.999999999999999e-08, 0.0, 0.0, 0.0, 8.999999999999999e-08)"
2025/07/05/17:44:18.982580,7315,1751712258,978916672,base_link,0.034377725378201496,-0.05799594951237159,-0.6203214123414984,-0.7814448075383368,"(1.0, 0.0, 0.0, 0.0, 1.0, 0.0, 0.0, 0.0, 1.0)",0.028720539063215256,-0.0017641021404415443,-0.06048110872507095,"(1.2184696791468346e-07, 0.0, 0.0, 0.0, 1.2184696791468346e-07, 0.0, 0.0, 0.0, 1.2184696791468346e-07)",-1.4513842000000001,0.009806650000001183,9.65955025,"(8.999999999999999e-08, 0.0, 0.0, 0.0, 8.999999999999999e-08, 0.0, 0.0, 0.0, 8.999999999999999e-08)"
2025/07/05/17:44:19.062713,7316,1751712259,58922048,base_link,0.033681375838782175,-0.0589036921536152,-0.61891013031254,-0.7825255079349129,"(1.0, 0.0, 0.0, 0.0, 1.0, 0.0, 0.0, 0.0, 1.0)",0.033125340938568115,0.008506570011377328,-0.05002091825008392,"(1.2184696791468346e-07, 0.0, 0.0, 0.0, 1.2184696791468346e-07, 0.0, 0.0, 0.0, 1.2184696791468346e-07)",-1.4513842000000001,0.03922660000000119,9.6693569,"(8.999999999999999e-08, 0.0, 0.0, 0.0, 8.999999999999999e-08, 0.0, 0.0, 0.0, 8.999999999999999e-08)"
2025/07/05/17:44:19.162838,7317,1751712259,158930752,base_link,0.032268441369949864,-0.05984518300729317,-0.6172290783470411,-0.7838402685530004,"(1.0, 0.0, 0.0, 0.0, 1.0, 0.0, 0.0, 0.0, 1.0)",0.03545890003442764,-0.0024040341377258357,-0.04441097006201744,"(1.2184696791468346e-07, 0.0, 0.0, 0.0, 1.2184696791468346e-07, 0.0, 0.0, 0.0, 1.2184696791468346e-07)",-1.2160246,0.06864655000000118,9.6693569,"(8.999999999999999e-08, 0.0, 0.0, 0.0, 8.999999999999999e-08, 0.0, 0.0, 0.0, 8.999999999999999e-08)"
2025/07/05/17:44:19.263517,7318,1751712259,258937920,base_link,0.030464233498788434,-0.06149374619578928,-0.6138946760763531,-0.7863992474190501,"(1.0, 0.0, 0.0, 0.0, 1.0, 0.0, 0.0, 0.0, 1.0)",0.05781220644712448,-0.0024077873677015404,-0.08045698702335358,"(1.2184696791468346e-07, 0.0, 0.0, 0.0, 1.2184696791468346e-07, 0.0, 0.0, 0.0, 1.2184696791468346e-07)",-1.176798,0.35303940000000117,9.77723005,"(8.999999999999999e-08, 0.0, 0.0, 0.0, 8.999999999999999e-08, 0.0, 0.0, 0.0, 8.999999999999999e-08)"
2025/07/05/17:44:19.362813,7319,1751712259,358944320,base_link,0.031094170243195406,-0.06217394045119488,-0.6094787007840302,-0.7897488632446832,"(1.0, 0.0, 0.0, 0.0, 1.0, 0.0, 0.0, 0.0, 1.0)",0.014037929475307465,0.017645267769694314,-0.11645426601171494,"(1.2184696791468346e-07, 0.0, 0.0, 0.0, 1.2184696791468346e-07, 0.0, 0.0, 0.0, 1.2184696791468346e-07)",-1.4906108,0.11767980000000118,9.69877685,"(8.999999999999999e-08, 0.0, 0.0, 0.0, 8.999999999999999e-08, 0.0, 0.0, 0.0, 8.999999999999999e-08)"
2025/07/05/17:44:19.562614,7320,1751712259,558957888,base_link,0.03835540612419331,-0.05831966572952343,-0.6000920418212295,-0.7968796777136888,"(1.0, 0.0, 0.0, 0.0, 1.0, 0.0, 0.0, 0.0, 1.0)",-0.07963204383850098,0.00832176581025122,-0.1296754777431488,"(1.2184696791468346e-07, 0.0, 0.0, 0.0, 1.2184696791468346e-07, 0.0, 0.0, 0.0, 1.2184696791468346e-07)",-1.4709975,0.1470997500000012,9.6497436,"(8.999999999999999e-08, 0.0, 0.0, 0.0, 8.999999999999999e-08, 0.0, 0.0, 0.0, 8.999999999999999e-08)"
2025/07/05/17:44:19.643062,7321,1751712259,638957888,base_link,0.039519852840870735,-0.05723689712471501,-0.5966015417878039,-0.7995178041641012,"(1.0, 0.0, 0.0, 0.0, 1.0, 0.0, 0.0, 0.0, 1.0)",-0.04320628196001053,-0.002338615013286486,-0.1206779032945633,"(1.2184696791468346e-07, 0.0, 0.0, 0.0, 1.2184696791468346e-07, 0.0, 0.0, 0.0, 1.2184696791468346e-07)",-1.4906108,0.009806650000001176,9.60071035,"(8.999999999999999e-08, 0.0, 0.0, 0.0, 8.999999999999999e-08, 0.0, 0.0, 0.0, 8.999999999999999e-08)"
2025/07/05/17:44:19.742036,7322,1751712259,738963520,base_link,0.03785863582370225,-0.057443837301864496,-0.5929048336522456,-0.8023283539059357,"(1.0, 0.0, 0.0, 0.0, 1.0, 0.0, 0.0, 0.0, 1.0)",0.031243683770298958,-0.015594108030200017,-0.09835813194513321,"(1.2184696791468346e-07, 0.0, 0.0, 0.0, 1.2184696791468346e-07, 0.0, 0.0, 0.0, 1.2184696791468346e-07)",-1.4709975,-0.009806649999998824,9.60071035,"(8.999999999999999e-08, 0.0, 0.0, 0.0, 8.999999999999999e-08, 0.0, 0.0, 0.0, 8.999999999999999e-08)"
2025/07/05/17:44:19.842154,7323,1751712259,838968640,base_link,0.03378795098014645,-0.0590399650632128,-0.5900997989396802,-0.8044593738562853,"(1.0, 0.0, 0.0, 0.0, 1.0, 0.0, 0.0, 0.0, 1.0)",0.08894114196300507,-0.02293340675532819,-0.07114183157682419,"(1.2184696791468346e-07, 0.0, 0.0, 0.0, 1.2184696791468346e-07, 0.0, 0.0, 0.0, 1.2184696791468346e-07)",-1.46119085,-0.05883989999999883,9.610517,"(8.999999999999999e-08, 0.0, 0.0, 0.0, 8.999999999999999e-08, 0.0, 0.0, 0.0, 8.999999999999999e-08)"
2025/07/05/17:44:19.963156,7324,1751712259,958982976,base_link,0.028386133150528903,-0.0618394080381006,-0.5873945821190564,-0.8064351926568167,"(1.0, 0.0, 0.0, 0.0, 1.0, 0.0, 0.0, 0.0, 1.0)",0.10627198219299316,-0.0148982871323824,-0.05301788076758385,"(1.2184696791468346e-07, 0.0, 0.0, 0.0, 1.2184696791468346e-07, 0.0, 0.0, 0.0, 1.2184696791468346e-07)",-1.4513842000000001,0.009806650000001183,9.6497436,"(8.999999999999999e-08, 0.0, 0.0, 0.0, 8.999999999999999e-08, 0.0, 0.0, 0.0, 8.999999999999999e-08)"
2025/07/05/17:44:20.063101,7325,1751712260,58991936,base_link,0.026532543332799342,-0.06344254813366591,-0.5852677089276117,-0.807918793021443,"(1.0, 0.0, 0.0, 0.0, 1.0, 0.0, 0.0, 0.0, 1.0)",0.05990203469991684,0.0027576270513236458,-0.05266191065311432,"(1.2184696791468346e-07, 0.0, 0.0, 0.0, 1.2184696791468346e-07, 0.0, 0.0, 0.0, 1.2184696791468346e-07)",-1.4709975,0.08825985000000118,9.69877685,"(8.999999999999999e-08, 0.0, 0.0, 0.0, 8.999999999999999e-08, 0.0, 0.0, 0.0, 8.999999999999999e-08)"
2025/07/05/17:44:20.162703,7326,1751712260,159000384,base_link,0.028220765326234874,-0.0634585651126333,-0.5828665372433457,-0.8095944655691508,"(1.0, 0.0, 0.0, 0.0, 1.0, 0.0, 0.0, 0.0, 1.0)",-0.017206700518727303,0.018760284408926957,-0.06403234601020813,"(1.2184696791468346e-07, 0.0, 0.0, 0.0, 1.2184696791468346e-07, 0.0, 0.0, 0.0, 1.2184696791468346e-07)",-1.4513842000000001,0.1765197000000012,9.69877685,"(8.999999999999999e-08, 0.0, 0.0, 0.0, 8.999999999999999e-08, 0.0, 0.0, 0.0, 8.999999999999999e-08)"
2025/07/05/17:44:20.262974,7327,1751712260,260009088,base_link,0.03230004531447604,-0.061941134637205846,-0.579960394636674,-0.8116439758695998,"(1.0, 0.0, 0.0, 0.0, 1.0, 0.0, 0.0, 0.0, 1.0)",-0.07587024569511414,0.023628078401088704,-0.08124074339866638,"(1.2184696791468346e-07, 0.0, 0.0, 0.0, 1.2184696791468346e-07, 0.0, 0.0, 0.0, 1.2184696791468346e-07)",-1.4513842000000001,0.2059396500000012,9.67916355,"(8.999999999999999e-08, 0.0, 0.0, 0.0, 8.999999999999999e-08, 0.0, 0.0, 0.0, 8.999999999999999e-08)"
2025/07/05/17:44:20.363746,7328,1751712260,359014976,base_link,0.03647093768787225,-0.059630289579146734,-0.5768814681503696,-0.8138315986575776,"(1.0, 0.0, 0.0, 0.0, 1.0, 0.0, 0.0, 0.0, 1.0)",-0.09236489236354828,0.008996941149234761,-0.08762937784194946,"(1.2184696791468346e-07, 0.0, 0.0, 0.0, 1.2184696791468346e-07, 0.0, 0.0, 0.0, 1.2184696791468346e-07)",-1.3533177,0.1470997500000012,9.62032365,"(8.999999999999999e-08, 0.0, 0.0, 0.0, 8.999999999999999e-08, 0.0, 0.0, 0.0, 8.999999999999999e-08)"
2025/07/05/17:44:20.563015,7329,1751712260,559028800,base_link,0.03452688702699936,-0.0583792119759836,-0.5706780484591697,-0.8183680875303736,"(1.0, 0.0, 0.0, 0.0, 1.0, 0.0, 0.0, 0.0, 1.0)",0.05322735384106636,-0.023689812049269687,-0.07813644409179688,"(1.2184696791468346e-07, 0.0, 0.0, 0.0, 1.2184696791468346e-07, 0.0, 0.0, 0.0, 1.2184696791468346e-07)",-1.32389775,0.10787315000000118,9.62032365,"(8.999999999999999e-08, 0.0, 0.0, 0.0, 8.999999999999999e-08, 0.0, 0.0, 0.0, 8.999999999999999e-08)"
2025/07/05/17:44:20.663434,7330,1751712260,659037248,base_link,0.029670130012135497,-0.06077694361102587,-0.5680871673142124,-0.820184623632557,"(1.0, 0.0, 0.0, 0.0, 1.0, 0.0, 0.0, 0.0, 1.0)",0.11589227616786957,-0.0205384660512209,-0.06260888278484344,"(1.2184696791468346e-07, 0.0, 0.0, 0.0, 1.2184696791468346e-07, 0.0, 0.0, 0.0, 1.2184696791468346e-07)",-1.3533177,0.03922660000000117,9.6301303,"(8.999999999999999e-08, 0.0, 0.0, 0.0, 8.999999999999999e-08, 0.0, 0.0, 0.0, 8.999999999999999e-08)"
2025/07/05/17:44:20.762961,7331,1751712260,759043136,base_link,0.02526054099566021,-0.06347983763273382,-0.5659946760342757,-0.821573029002038,"(1.0, 0.0, 0.0, 0.0, 1.0, 0.0, 0.0, 0.0, 1.0)",0.11328612267971039,-0.007086183410137898,-0.04944350942969322,"(1.2184696791468346e-07, 0.0, 0.0, 0.0, 1.2184696791468346e-07, 0.0, 0.0, 0.0, 1.2184696791468346e-07)",-1.36312435,0.02941995000000118,9.639936950000001,"(8.999999999999999e-08, 0.0, 0.0, 0.0, 8.999999999999999e-08, 0.0, 0.0, 0.0, 8.999999999999999e-08)"
2025/07/05/17:44:20.862690,7332,1751712260,859051072,base_link,0.02356409103151258,-0.06486989646254492,-0.5640548331399067,-0.8228479661263733,"(1.0, 0.0, 0.0, 0.0, 1.0, 0.0, 0.0, 0.0, 1.0)",0.053059689700603485,0.006138968281447881,-0.04725957289338112,"(1.2184696791468346e-07, 0.0, 0.0, 0.0, 1.2184696791468346e-07, 0.0, 0.0, 0.0, 1.2184696791468346e-07)",-1.40235095,0.08825985000000118,9.65955025,"(8.999999999999999e-08, 0.0, 0.0, 0.0, 8.999999999999999e-08, 0.0, 0.0, 0.0, 8.999999999999999e-08)"
2025/07/05/17:44:20.981849,7333,1751712260,979057216,base_link,0.0262450802826555,-0.06430636037512474,-0.561313445815187,-0.8246836383264446,"(1.0, 0.0, 0.0, 0.0, 1.0, 0.0, 0.0, 0.0, 1.0)",-0.03809013590216637,0.013613671995699399,-0.06358049064874649,"(1.2184696791468346e-07, 0.0, 0.0, 0.0, 1.2184696791468346e-07, 0.0, 0.0, 0.0, 1.2184696791468346e-07)",-1.38273765,0.1863263500000012,9.6497436,"(8.999999999999999e-08, 0.0, 0.0, 0.0, 8.999999999999999e-08, 0.0, 0.0, 0.0, 8.999999999999999e-08)"
2025/07/05/17:44:21.062786,7334,1751712261,59062592,base_link,0.029418716047870778,-0.06265249479969379,-0.5588676303994805,-0.8263632226407096,"(1.0, 0.0, 0.0, 0.0, 1.0, 0.0, 0.0, 0.0, 1.0)",-0.07865223288536072,0.013368921354413022,-0.08282651752233505,"(1.2184696791468346e-07, 0.0, 0.0, 0.0, 1.2184696791468346e-07, 0.0, 0.0, 0.0, 1.2184696791468346e-07)",-1.44157755,0.1961330000000012,9.7085835,"(8.999999999999999e-08, 0.0, 0.0, 0.0, 8.999999999999999e-08, 0.0, 0.0, 0.0, 8.999999999999999e-08)"
2025/07/05/17:44:21.162654,7335,1751712261,159068736,base_link,0.0339406670039226,-0.06019393973687386,-0.5551983100932462,-0.8288422993621201,"(1.0, 0.0, 0.0, 0.0, 1.0, 0.0, 0.0, 0.0, 1.0)",-0.09552547335624695,0.008588518016040313,-0.10031917691230774,"(1.2184696791468346e-07, 0.0, 0.0, 0.0, 1.2184696791468346e-07, 0.0, 0.0, 0.0, 1.2184696791468346e-07)",-1.40235095,0.2157463000000012,9.7478101,"(8.999999999999999e-08, 0.0, 0.0, 0.0, 8.999999999999999e-08, 0.0, 0.0, 0.0, 8.999999999999999e-08)"
2025/07/05/17:44:21.262292,7336,1751712261,259074880,base_link,0.03600938836586549,-0.058766665455026436,-0.551142455196069,-0.8315598577740886,"(1.0, 0.0, 0.0, 0.0, 1.0, 0.0, 0.0, 0.0, 1.0)",-0.04994070529937744,0.0004514288157224524,-0.1069910004734993,"(1.2184696791468346e-07, 0.0, 0.0, 0.0, 1.2184696791468346e-07, 0.0, 0.0, 0.0, 1.2184696791468346e-07)",-1.4121576,0.10787315000000118,9.73800345,"(8.999999999999999e-08, 0.0, 0.0, 0.0, 8.999999999999999e-08, 0.0, 0.0, 0.0, 8.999999999999999e-08)"
2025/07/05/17:44:21.362688,7337,1751712261,359081280,base_link,0.03424443385993304,-0.05947302125379774,-0.5471060879938238,-0.8342452918492573,"(1.0, 0.0, 0.0, 0.0, 1.0, 0.0, 0.0, 0.0, 1.0)",0.038818296045064926,-0.0068554230965674045,-0.10096663236618042,"(1.2184696791468346e-07, 0.0, 0.0, 0.0, 1.2184696791468346e-07, 0.0, 0.0, 0.0, 1.2184696791468346e-07)",-1.42196425,0.019613300000001183,9.6693569,"(8.999999999999999e-08, 0.0, 0.0, 0.0, 8.999999999999999e-08, 0.0, 0.0, 0.0, 8.999999999999999e-08)"
2025/07/05/17:44:21.542651,7338,1751712261,539091264,base_link,0.02528483970730717,-0.0640107767372941,-0.5409627915586255,-0.838225838000454,"(1.0, 0.0, 0.0, 0.0, 1.0, 0.0, 0.0, 0.0, 1.0)",0.12611623108386993,-0.012552552856504926,-0.07313454151153564,"(1.2184696791468346e-07, 0.0, 0.0, 0.0, 1.2184696791468346e-07, 0.0, 0.0, 0.0, 1.2184696791468346e-07)",-1.3925443,0.009806650000001178,9.610517,"(8.999999999999999e-08, 0.0, 0.0, 0.0, 8.999999999999999e-08, 0.0, 0.0, 0.0, 8.999999999999999e-08)"
2025/07/05/17:44:21.643123,7339,1751712261,639097664,base_link,0.02224690769983968,-0.06530017407629522,-0.5383813270241766,-0.8398729124546683,"(1.0, 0.0, 0.0, 0.0, 1.0, 0.0, 0.0, 0.0, 1.0)",0.07687036693096161,-0.009956967085599906,-0.06233516335487366,"(1.2184696791468346e-07, 0.0, 0.0, 0.0, 1.2184696791468346e-07, 0.0, 0.0, 0.0, 1.2184696791468346e-07)",-1.3533177,0.10787315000000117,9.60071035,"(8.999999999999999e-08, 0.0, 0.0, 0.0, 8.999999999999999e-08, 0.0, 0.0, 0.0, 8.999999999999999e-08)"
2025/07/05/17:44:21.722800,7340,1751712261,719103808,base_link,0.02239600708278782,-0.0651243649803817,-0.5364750843998549,-0.8411014919561242,"(1.0, 0.0, 0.0, 0.0, 1.0, 0.0, 0.0, 0.0, 1.0)",0.014360939152538776,-0.0061595840379595835,-0.06169706955552101,"(1.2184696791468346e-07, 0.0, 0.0, 0.0, 1.2184696791468346e-07, 0.0, 0.0, 0.0, 1.2184696791468346e-07)",-1.3925443,0.11767980000000118,9.6497436,"(8.999999999999999e-08, 0.0, 0.0, 0.0, 8.999999999999999e-08, 0.0, 0.0, 0.0, 8.999999999999999e-08)"
2025/07/05/17:44:21.826119,7341,1751712261,823109952,base_link,0.02452924471877083,-0.06373536831784256,-0.5338565658939824,-0.8428127229882088,"(1.0, 0.0, 0.0, 0.0, 1.0, 0.0, 0.0, 0.0, 1.0)",-0.04616054892539978,0.000986903673037878,-0.07106442749500275,"(1.2184696791468346e-07, 0.0, 0.0, 0.0, 1.2184696791468346e-07, 0.0, 0.0, 0.0, 1.2184696791468346e-07)",-1.38273765,0.1863263500000012,9.65955025,"(8.999999999999999e-08, 0.0, 0.0, 0.0, 8.999999999999999e-08, 0.0, 0.0, 0.0, 8.999999999999999e-08)"
2025/07/05/17:44:21.943259,7342,1751712261,939116352,base_link,0.028682112805752273,-0.06188075645703516,-0.5300336517147404,-0.8452292212383815,"(1.0, 0.0, 0.0, 0.0, 1.0, 0.0, 0.0, 0.0, 1.0)",-0.07114294171333313,0.009961845353245725,-0.08673436939716339,"(1.2184696791468346e-07, 0.0, 0.0, 0.0, 1.2184696791468346e-07, 0.0, 0.0, 0.0, 1.2184696791468346e-07)",-1.3925443,0.1961330000000012,9.75761675,"(8.999999999999999e-08, 0.0, 0.0, 0.0, 8.999999999999999e-08, 0.0, 0.0, 0.0, 8.999999999999999e-08)"
2025/07/05/17:44:22.044433,7343,1751712262,39121472,base_link,0.031898458144875755,-0.060897477400836425,-0.5262950073378585,-0.8475184663860945,"(1.0, 0.0, 0.0, 0.0, 1.0, 0.0, 0.0, 0.0, 1.0)",-0.05888133868575096,0.015054609626531589,-0.09602366387844086,"(1.2184696791468346e-07, 0.0, 0.0, 0.0, 1.2184696791468346e-07, 0.0, 0.0, 0.0, 1.2184696791468346e-07)",-1.38273765,0.1372931000000012,9.7281968,"(8.999999999999999e-08, 0.0, 0.0, 0.0, 8.999999999999999e-08, 0.0, 0.0, 0.0, 8.999999999999999e-08)"
2025/07/05/17:44:22.141679,7344,1751712262,139128128,base_link,0.032742732822156555,-0.06062548799053255,-0.522424211309383,-0.8498972920835881,"(1.0, 0.0, 0.0, 0.0, 1.0, 0.0, 0.0, 0.0, 1.0)",-0.015495925210416317,0.008962356485426414,-0.09883090853691101,"(1.2184696791468346e-07, 0.0, 0.0, 0.0, 1.2184696791468346e-07, 0.0, 0.0, 0.0, 1.2184696791468346e-07)",-1.3140911,0.11767980000000118,9.639936950000001,"(8.999999999999999e-08, 0.0, 0.0, 0.0, 8.999999999999999e-08, 0.0, 0.0, 0.0, 8.999999999999999e-08)"
2025/07/05/17:44:22.243042,7345,1751712262,239134272,base_link,0.030735617493008096,-0.06155730426337904,-0.5184732839238201,-0.8523212269833476,"(1.0, 0.0, 0.0, 0.0, 1.0, 0.0, 0.0, 0.0, 1.0)",0.04710259288549423,-0.0035162784624844907,-0.0957384780049324,"(1.2184696791468346e-07, 0.0, 0.0, 0.0, 1.2184696791468346e-07, 0.0, 0.0, 0.0, 1.2184696791468346e-07)",-1.38273765,0.12748645000000117,9.5909037,"(8.999999999999999e-08, 0.0, 0.0, 0.0, 8.999999999999999e-08, 0.0, 0.0, 0.0, 8.999999999999999e-08)"
2025/07/05/17:44:22.341894,7346,1751712262,339140672,base_link,0.02625784521169101,-0.06312101628965287,-0.5149695504754547,-0.8544779838887064,"(1.0, 0.0, 0.0, 0.0, 1.0, 0.0, 0.0, 0.0, 1.0)",0.0944269448518753,-0.018010269850492488,-0.08276305347681046,"(1.2184696791468346e-07, 0.0, 0.0, 0.0, 1.2184696791468346e-07, 0.0, 0.0, 0.0, 1.2184696791468346e-07)",-1.2944778000000001,0.03922660000000117,9.5712904,"(8.999999999999999e-08, 0.0, 0.0, 0.0, 8.999999999999999e-08, 0.0, 0.0, 0.0, 8.999999999999999e-08)"
2025/07/05/17:44:22.503677,7347,1751712262,501153472,base_link,0.020474519964906932,-0.06514793259792405,-0.5108845214304913,-0.8569326383521408,"(1.0, 0.0, 0.0, 0.0, 1.0, 0.0, 0.0, 0.0, 1.0)",0.07725457847118378,-0.017155565321445472,-0.05625452101230621,"(1.2184696791468346e-07, 0.0, 0.0, 0.0, 1.2184696791468346e-07, 0.0, 0.0, 0.0, 1.2184696791468346e-07)",-1.372931,0.05883990000000117,9.610517,"(8.999999999999999e-08, 0.0, 0.0, 0.0, 8.999999999999999e-08, 0.0, 0.0, 0.0, 8.999999999999999e-08)"
2025/07/05/17:44:22.625976,7348,1751712262,622159616,base_link,0.019582250240559335,-0.06555665617797882,-0.5080908033974483,-0.8585817350778049,"(1.0, 0.0, 0.0, 0.0, 1.0, 0.0, 0.0, 0.0, 1.0)",0.015502727590501308,-0.0005392953753471445,-0.05760859325528145,"(1.2184696791468346e-07, 0.0, 0.0, 0.0, 1.2184696791468346e-07, 0.0, 0.0, 0.0, 1.2184696791468346e-07)",-1.3925443,0.1569064000000012,9.7085835,"(8.999999999999999e-08, 0.0, 0.0, 0.0, 8.999999999999999e-08, 0.0, 0.0, 0.0, 8.999999999999999e-08)"
2025/07/05/17:44:22.704534,7349,1751712262,700166016,base_link,0.02142061690313081,-0.06517928466010772,-0.5056296616413112,-0.8600182924166088,"(1.0, 0.0, 0.0, 0.0, 1.0, 0.0, 0.0, 0.0, 1.0)",-0.02769707329571247,0.012438958510756484,-0.07483590394258499,"(1.2184696791468346e-07, 0.0, 0.0, 0.0, 1.2184696791468346e-07, 0.0, 0.0, 0.0, 1.2184696791468346e-07)",-1.42196425,0.2451662500000012,9.75761675,"(8.999999999999999e-08, 0.0, 0.0, 0.0, 8.999999999999999e-08, 0.0, 0.0, 0.0, 8.999999999999999e-08)"
2025/07/05/17:44:22.782425,7350,1751712262,779172416,base_link,0.025160669840984733,-0.06404049492795967,-0.5027185373946917,-0.8617075071404896,"(1.0, 0.0, 0.0, 0.0, 1.0, 0.0, 0.0, 0.0, 1.0)",-0.07554814964532852,0.019778842106461515,-0.09371300786733627,"(1.2184696791468346e-07, 0.0, 0.0, 0.0, 1.2184696791468346e-07, 0.0, 0.0, 0.0, 1.2184696791468346e-07)",-1.42196425,0.1667130500000012,9.75761675,"(8.999999999999999e-08, 0.0, 0.0, 0.0, 8.999999999999999e-08, 0.0, 0.0, 0.0, 8.999999999999999e-08)"
2025/07/05/17:44:22.862298,7351,1751712262,859177536,base_link,0.029341593542494018,-0.062464213240866415,-0.49937149858941987,-0.8636349919665969,"(1.0, 0.0, 0.0, 0.0, 1.0, 0.0, 0.0, 0.0, 1.0)",-0.10246659070253372,0.018925141543149934,-0.10763714462518692,"(1.2184696791468346e-07, 0.0, 0.0, 0.0, 1.2184696791468346e-07, 0.0, 0.0, 0.0, 1.2184696791468346e-07)",-1.42196425,0.1470997500000012,9.6889702,"(8.999999999999999e-08, 0.0, 0.0, 0.0, 8.999999999999999e-08, 0.0, 0.0, 0.0, 8.999999999999999e-08)"
2025/07/05/17:44:22.982910,7352,1751712262,979184448,base_link,0.032355438162030264,-0.06070425570772519,-0.494167590574195,-0.8666409356742899,"(1.0, 0.0, 0.0, 0.0, 1.0, 0.0, 0.0, 0.0, 1.0)",-0.05432714894413948,0.002638311823829995,-0.10946387052536011,"(1.2184696791468346e-07, 0.0, 0.0, 0.0, 1.2184696791468346e-07, 0.0, 0.0, 0.0, 1.2184696791468346e-07)",-1.3925443,0.08825985000000118,9.639936950000001,"(8.999999999999999e-08, 0.0, 0.0, 0.0, 8.999999999999999e-08, 0.0, 0.0, 0.0, 8.999999999999999e-08)"
2025/07/05/17:44:23.062293,7353,1751712263,59191872,base_link,0.03069420282128139,-0.061049673830354236,-0.4911102859313724,-0.8684132025083331,"(1.0, 0.0, 0.0, 0.0, 1.0, 0.0, 0.0, 0.0, 1.0)",0.0305173322558403,-0.01081997621804477,-0.09680883586406708,"(1.2184696791468346e-07, 0.0, 0.0, 0.0, 1.2184696791468346e-07, 0.0, 0.0, 0.0, 1.2184696791468346e-07)",-1.38273765,0.019613300000001176,9.5909037,"(8.999999999999999e-08, 0.0, 0.0, 0.0, 8.999999999999999e-08, 0.0, 0.0, 0.0, 8.999999999999999e-08)"
2025/07/05/17:44:23.162965,7354,1751712263,159197760,base_link,0.024490802934855747,-0.06326581819025005,-0.487874249129735,-0.8702737235240541,"(1.0, 0.0, 0.0, 0.0, 1.0, 0.0, 0.0, 0.0, 1.0)",0.13204190135002136,-0.02094794064760209,-0.0736260935664177,"(1.2184696791468346e-07, 0.0, 0.0, 0.0, 1.2184696791468346e-07, 0.0, 0.0, 0.0, 1.2184696791468346e-07)",-1.36312435,0.04903325000000117,9.5909037,"(8.999999999999999e-08, 0.0, 0.0, 0.0, 8.999999999999999e-08, 0.0, 0.0, 0.0, 8.999999999999999e-08)"
2025/07/05/17:44:23.262648,7355,1751712263,259203904,base_link,0.017199111036459137,-0.0660250615003703,-0.4850509346575571,-0.8718202065915072,"(1.0, 0.0, 0.0, 0.0, 1.0, 0.0, 0.0, 0.0, 1.0)",0.1614406257867813,-0.02387656085193158,-0.058646026998758316,"(1.2184696791468346e-07, 0.0, 0.0, 0.0, 1.2184696791468346e-07, 0.0, 0.0, 0.0, 1.2184696791468346e-07)",-1.176798,0.07845320000000118,9.639936950000001,"(8.999999999999999e-08, 0.0, 0.0, 0.0, 8.999999999999999e-08, 0.0, 0.0, 0.0, 8.999999999999999e-08)"
2025/07/05/17:44:23.362298,7356,1751712263,359208512,base_link,0.01424597751533104,-0.06730721486445261,-0.482332103428761,-0.8732826191753791,"(1.0, 0.0, 0.0, 0.0, 1.0, 0.0, 0.0, 0.0, 1.0)",0.08324634283781052,-0.009842280298471458,-0.06142697110772133,"(1.2184696791468346e-07, 0.0, 0.0, 0.0, 1.2184696791468346e-07, 0.0, 0.0, 0.0, 1.2184696791468346e-07)",-1.4121576,0.1863263500000012,9.7281968,"(8.999999999999999e-08, 0.0, 0.0, 0.0, 8.999999999999999e-08, 0.0, 0.0, 0.0, 8.999999999999999e-08)"
2025/07/05/17:44:23.523780,7357,1751712263,521214144,base_link,0.020932358212216118,-0.06505826332232766,-0.4767533908876467,-0.8763763250055817,"(1.0, 0.0, 0.0, 0.0, 1.0, 0.0, 0.0, 0.0, 1.0)",-0.1031898632645607,0.019373469054698934,-0.09802470356225967,"(1.2184696791468346e-07, 0.0, 0.0, 0.0, 1.2184696791468346e-07, 0.0, 0.0, 0.0, 1.2184696791468346e-07)",-1.46119085,0.2451662500000012,9.7085835,"(8.999999999999999e-08, 0.0, 0.0, 0.0, 8.999999999999999e-08, 0.0, 0.0, 0.0, 8.999999999999999e-08)"
2025/07/05/17:44:23.642153,7358,1751712263,639220032,base_link,0.02902100233286896,-0.062175836863103115,-0.4712762304569918,-0.8793126072906134,"(1.0, 0.0, 0.0, 0.0, 1.0, 0.0, 0.0, 0.0, 1.0)",-0.13691529631614685,0.020914236083626733,-0.1199488565325737,"(1.2184696791468346e-07, 0.0, 0.0, 0.0, 1.2184696791468346e-07, 0.0, 0.0, 0.0, 1.2184696791468346e-07)",-1.38273765,0.2059396500000012,9.7281968,"(8.999999999999999e-08, 0.0, 0.0, 0.0, 8.999999999999999e-08, 0.0, 0.0, 0.0, 8.999999999999999e-08)"
2025/07/05/17:44:23.743668,7359,1751712263,739225152,base_link,0.03213078419643754,-0.06087825436761959,-0.46675625682326477,-0.8817029247815887,"(1.0, 0.0, 0.0, 0.0, 1.0, 0.0, 0.0, 0.0, 1.0)",-0.06994649767875671,0.008377165533602224,-0.11373604089021683,"(1.2184696791468346e-07, 0.0, 0.0, 0.0, 1.2184696791468346e-07, 0.0, 0.0, 0.0, 1.2184696791468346e-07)",-1.40235095,0.04903325000000119,9.6889702,"(8.999999999999999e-08, 0.0, 0.0, 0.0, 8.999999999999999e-08, 0.0, 0.0, 0.0, 8.999999999999999e-08)"
2025/07/05/17:44:23.825544,7360,1751712263,822230528,base_link,0.030452377019522345,-0.06143917144732907,-0.4635022187111728,-0.8834384948571952,"(1.0, 0.0, 0.0, 0.0, 1.0, 0.0, 0.0, 0.0, 1.0)",0.031099870800971985,-0.005537949036806834,-0.09914984554052353,"(1.2184696791468346e-07, 0.0, 0.0, 0.0, 1.2184696791468346e-07, 0.0, 0.0, 0.0, 1.2184696791468346e-07)",-1.3925443,1.1853556659931232e-15,9.67916355,"(8.999999999999999e-08, 0.0, 0.0, 0.0, 8.999999999999999e-08, 0.0, 0.0, 0.0, 8.999999999999999e-08)"
2025/07/05/17:44:23.903754,7361,1751712263,900236160,base_link,0.025283342356675263,-0.06328253515874868,-0.460688005460828,-0.8849421647586247,"(1.0, 0.0, 0.0, 0.0, 1.0, 0.0, 0.0, 0.0, 1.0)",0.12911824882030487,-0.0176273211836815,-0.07987925410270691,"(1.2184696791468346e-07, 0.0, 0.0, 0.0, 1.2184696791468346e-07, 0.0, 0.0, 0.0, 1.2184696791468346e-07)",-1.36312435,0.02941995000000118,9.62032365,"(8.999999999999999e-08, 0.0, 0.0, 0.0, 8.999999999999999e-08, 0.0, 0.0, 0.0, 8.999999999999999e-08)"
2025/07/05/17:44:24.026212,7362,1751712264,23243072,base_link,0.016000475378470644,-0.06673266875994795,-0.4572775190530799,-0.8866724345983119,"(1.0, 0.0, 0.0, 0.0, 1.0, 0.0, 0.0, 0.0, 1.0)",0.172062486410141,-0.01916483789682389,-0.0564686618745327,"(1.2184696791468346e-07, 0.0, 0.0, 0.0, 1.2184696791468346e-07, 0.0, 0.0, 0.0, 1.2184696791468346e-07)",-1.372931,0.04903325000000117,9.58109705,"(8.999999999999999e-08, 0.0, 0.0, 0.0, 8.999999999999999e-08, 0.0, 0.0, 0.0, 8.999999999999999e-08)"
2025/07/05/17:44:24.102886,7363,1751712264,100249216,base_link,0.012739144481683189,-0.06814867697127903,-0.45527372897164686,-0.887648186914833,"(1.0, 0.0, 0.0, 0.0, 1.0, 0.0, 0.0, 0.0, 1.0)",0.11649544537067413,-0.010043044574558742,-0.054030537605285645,"(1.2184696791468346e-07, 0.0, 0.0, 0.0, 1.2184696791468346e-07, 0.0, 0.0, 0.0, 1.2184696791468346e-07)",-1.40235095,0.09806650000000118,9.639936950000001,"(8.999999999999999e-08, 0.0, 0.0, 0.0, 8.999999999999999e-08, 0.0, 0.0, 0.0, 8.999999999999999e-08)"
2025/07/05/17:44:24.204334,7364,1751712264,201255872,base_link,0.013733996326242526,-0.06825992556957877,-0.452353949992368,-0.8891163387501371,"(1.0, 0.0, 0.0, 0.0, 1.0, 0.0, 0.0, 0.0, 1.0)",-0.003195476718246937,0.007091253995895377,-0.06979227811098099,"(1.2184696791468346e-07, 0.0, 0.0, 0.0, 1.2184696791468346e-07, 0.0, 0.0, 0.0, 1.2184696791468346e-07)",-1.40235095,0.1863263500000012,9.6693569,"(8.999999999999999e-08, 0.0, 0.0, 0.0, 8.999999999999999e-08, 0.0, 0.0, 0.0, 8.999999999999999e-08)"
2025/07/05/17:44:24.284307,7365,1751712264,279263040,base_link,0.01806577309685592,-0.06703676486402424,-0.44937255643934715,-0.8906424678388879,"(1.0, 0.0, 0.0, 0.0, 1.0, 0.0, 0.0, 0.0, 1.0)",-0.08917879313230515,0.018963143229484548,-0.09243675321340561,"(1.2184696791468346e-07, 0.0, 0.0, 0.0, 1.2184696791468346e-07, 0.0, 0.0, 0.0, 1.2184696791468346e-07)",-1.48080415,0.27458620000000117,9.67916355,"(8.999999999999999e-08, 0.0, 0.0, 0.0, 8.999999999999999e-08, 0.0, 0.0, 0.0, 8.999999999999999e-08)"
2025/07/05/17:44:24.382259,7366,1751712264,379270464,base_link,0.025560743031114264,-0.06429371809789428,-0.44513775947979994,-0.8927851596628102,"(1.0, 0.0, 0.0, 0.0, 1.0, 0.0, 0.0, 0.0, 1.0)",-0.15192139148712158,0.018369339406490312,-0.11131969094276428,"(1.2184696791468346e-07, 0.0, 0.0, 0.0, 1.2184696791468346e-07, 0.0, 0.0, 0.0, 1.2184696791468346e-07)",-1.46119085,0.1863263500000012,9.7281968,"(8.999999999999999e-08, 0.0, 0.0, 0.0, 8.999999999999999e-08, 0.0, 0.0, 0.0, 8.999999999999999e-08)"
2025/07/05/17:44:24.582429,7367,1751712264,579285312,base_link,0.030939465796707977,-0.060542821695062005,-0.437900912269643,-0.896448608248587,"(1.0, 0.0, 0.0, 0.0, 1.0, 0.0, 0.0, 0.0, 1.0)",-0.015690576285123825,-0.01750834845006467,-0.07871484011411667,"(1.2184696791468346e-07, 0.0, 0.0, 0.0, 1.2184696791468346e-07, 0.0, 0.0, 0.0, 1.2184696791468346e-07)",-1.4513842000000001,0.029419950000001183,9.6889702,"(8.999999999999999e-08, 0.0, 0.0, 0.0, 8.999999999999999e-08, 0.0, 0.0, 0.0, 8.999999999999999e-08)"
2025/07/05/17:44:24.662643,7368,1751712264,659290432,base_link,0.02728762039403542,-0.06131862741883487,-0.43701334976100453,-0.8969474587930817,"(1.0, 0.0, 0.0, 0.0, 1.0, 0.0, 0.0, 0.0, 1.0)",0.07569702714681625,-0.023047018796205524,-0.033722326159477234,"(1.2184696791468346e-07, 0.0, 0.0, 0.0, 1.2184696791468346e-07, 0.0, 0.0, 0.0, 1.2184696791468346e-07)",-1.4121576,-0.1863263499999988,9.6301303,"(8.999999999999999e-08, 0.0, 0.0, 0.0, 8.999999999999999e-08, 0.0, 0.0, 0.0, 8.999999999999999e-08)"
2025/07/05/17:44:24.762928,7369,1751712264,759296832,base_link,0.019285668106761883,-0.06466744374342104,-0.4368250021292201,-0.8970117625985593,"(1.0, 0.0, 0.0, 0.0, 1.0, 0.0, 0.0, 0.0, 1.0)",0.17293553054332733,-0.01130937971174717,0.002409856999292971,"(1.2184696791468346e-07, 0.0, 0.0, 0.0, 1.2184696791468346e-07, 0.0, 0.0, 0.0, 1.2184696791468346e-07)",-1.44157755,0.03922660000000117,9.58109705,"(8.999999999999999e-08, 0.0, 0.0, 0.0, 8.999999999999999e-08, 0.0, 0.0, 0.0, 8.999999999999999e-08)"
2025/07/05/17:44:24.863421,7370,1751712264,859303232,base_link,0.014104309633248425,-0.06765964006466182,-0.43801912209907734,-0.8963049091864015,"(1.0, 0.0, 0.0, 0.0, 1.0, 0.0, 0.0, 0.0, 1.0)",0.1314132809638977,0.007815336808562282,0.030738865956664085,"(1.2184696791468346e-07, 0.0, 0.0, 0.0, 1.2184696791468346e-07, 0.0, 0.0, 0.0, 1.2184696791468346e-07)",-1.40235095,-0.10787314999999882,9.610517,"(8.999999999999999e-08, 0.0, 0.0, 0.0, 8.999999999999999e-08, 0.0, 0.0, 0.0, 8.999999999999999e-08)"
2025/07/05/17:44:25.003837,7371,1751712265,310144,base_link,0.015361881264612711,-0.06873491785230831,-0.43874185257023623,-0.895848821216552,"(1.0, 0.0, 0.0, 0.0, 1.0, 0.0, 0.0, 0.0, 1.0)",-0.022614581510424614,0.022954750806093216,0.003328858874738214,"(1.2184696791468346e-07, 0.0, 0.0, 0.0, 1.2184696791468346e-07, 0.0, 0.0, 0.0, 1.2184696791468346e-07)",-1.4513842000000001,0.25497290000000117,9.7085835,"(8.999999999999999e-08, 0.0, 0.0, 0.0, 8.999999999999999e-08, 0.0, 0.0, 0.0, 8.999999999999999e-08)"
2025/07/05/17:44:25.083439,7372,1751712265,79316800,base_link,0.02056223110203753,-0.06684593481138291,-0.43844411691879515,-0.8960332426816521,"(1.0, 0.0, 0.0, 0.0, 1.0, 0.0, 0.0, 0.0, 1.0)",-0.1178489625453949,0.017168760299682614,-0.019724717363715175,"(1.2184696791468346e-07, 0.0, 0.0, 0.0, 1.2184696791468346e-07, 0.0, 0.0, 0.0, 1.2184696791468346e-07)",-1.4513842000000001,0.2059396500000012,9.7281968,"(8.999999999999999e-08, 0.0, 0.0, 0.0, 8.999999999999999e-08, 0.0, 0.0, 0.0, 8.999999999999999e-08)"
2025/07/05/17:44:25.181917,7373,1751712265,179324736,base_link,0.027915588300888614,-0.06310574345470743,-0.437726288909946,-0.8964564022137219,"(1.0, 0.0, 0.0, 0.0, 1.0, 0.0, 0.0, 0.0, 1.0)",-0.1680835336446762,-0.0017919635865837377,-0.033232927322387695,"(1.2184696791468346e-07, 0.0, 0.0, 0.0, 1.2184696791468346e-07, 0.0, 0.0, 0.0, 1.2184696791468346e-07)",-1.4709975,0.1961330000000012,9.7085835,"(8.999999999999999e-08, 0.0, 0.0, 0.0, 8.999999999999999e-08, 0.0, 0.0, 0.0, 8.999999999999999e-08)"
2025/07/05/17:44:25.262279,7374,1751712265,259329600,base_link,0.03089635538407907,-0.060844341969892475,-0.4374500261196724,-0.8966497955847252,"(1.0, 0.0, 0.0, 0.0, 1.0, 0.0, 0.0, 0.0, 1.0)",-0.11431516706943512,-0.016370497643947605,-0.024326534941792485,"(1.2184696791468346e-07, 0.0, 0.0, 0.0, 1.2184696791468346e-07, 0.0, 0.0, 0.0, 1.2184696791468346e-07)",-1.4317709,0.04903325000000119,9.65955025,"(8.999999999999999e-08, 0.0, 0.0, 0.0, 8.999999999999999e-08, 0.0, 0.0, 0.0, 8.999999999999999e-08)"
2025/07/05/17:44:25.362746,7375,1751712265,359335232,base_link,0.028427688902809403,-0.06078718462516446,-0.43827822964286195,-0.8963308418826778,"(1.0, 0.0, 0.0, 0.0, 1.0, 0.0, 0.0, 0.0, 1.0)",0.031452637165784836,-0.023860454559326172,0.01231931243091822,"(1.2184696791468346e-07, 0.0, 0.0, 0.0, 1.2184696791468346e-07, 0.0, 0.0, 0.0, 1.2184696791468346e-07)",-1.42196425,1.1757479199668367e-15,9.60071035,"(8.999999999999999e-08, 0.0, 0.0, 0.0, 8.999999999999999e-08, 0.0, 0.0, 0.0, 8.999999999999999e-08)"
2025/07/05/17:44:25.543051,7376,1751712265,539341888,base_link,0.01472192363206952,-0.06743264411812808,-0.4419155070850893,-0.8943974441318232,"(1.0, 0.0, 0.0, 0.0, 1.0, 0.0, 0.0, 0.0, 1.0)",0.1816491186618805,0.00620508752763272,0.05818065628409386,"(1.2184696791468346e-07, 0.0, 0.0, 0.0, 1.2184696791468346e-07, 0.0, 0.0, 0.0, 1.2184696791468346e-07)",-1.4121576,-0.009806649999998826,9.58109705,"(8.999999999999999e-08, 0.0, 0.0, 0.0, 8.999999999999999e-08, 0.0, 0.0, 0.0, 8.999999999999999e-08)"
2025/07/05/17:44:25.643726,7377,1751712265,639347264,base_link,0.01194269895557229,-0.07000474133639763,-0.4436072622017986,-0.8934032152695137,"(1.0, 0.0, 0.0, 0.0, 1.0, 0.0, 0.0, 0.0, 1.0)",0.08520085364580154,0.021784249693155292,0.04242905229330063,"(1.2184696791468346e-07, 0.0, 0.0, 0.0, 1.2184696791468346e-07, 0.0, 0.0, 0.0, 1.2184696791468346e-07)",-1.42196425,0.1667130500000012,9.6693569,"(8.999999999999999e-08, 0.0, 0.0, 0.0, 8.999999999999999e-08, 0.0, 0.0, 0.0, 8.999999999999999e-08)"
2025/07/05/17:44:25.742606,7378,1751712265,739353408,base_link,0.016091313055573576,-0.06903180792839098,-0.4440393542464267,-0.8931991552944403,"(1.0, 0.0, 0.0, 0.0, 1.0, 0.0, 0.0, 0.0, 1.0)",-0.07143018394708633,0.021205540746450424,0.00260860822163522,"(1.2184696791468346e-07, 0.0, 0.0, 0.0, 1.2184696791468346e-07, 0.0, 0.0, 0.0, 1.2184696791468346e-07)",-1.44157755,0.29419950000000117,9.71839015,"(8.999999999999999e-08, 0.0, 0.0, 0.0, 8.999999999999999e-08, 0.0, 0.0, 0.0, 8.999999999999999e-08)"
2025/07/05/17:44:25.841687,7379,1751712265,839358016,base_link,0.024637903679363415,-0.06495253979053059,-0.4435644530592884,-0.8935461472466095,"(1.0, 0.0, 0.0, 0.0, 1.0, 0.0, 0.0, 0.0, 1.0)",-0.18750368058681488,0.00490182405337691,-0.02885567955672741,"(1.2184696791468346e-07, 0.0, 0.0, 0.0, 1.2184696791468346e-07, 0.0, 0.0, 0.0, 1.2184696791468346e-07)",-1.4513842000000001,0.27458620000000117,9.73800345,"(8.999999999999999e-08, 0.0, 0.0, 0.0, 8.999999999999999e-08, 0.0, 0.0, 0.0, 8.999999999999999e-08)"
2025/07/05/17:44:25.922767,7380,1751712265,920363648,base_link,0.0303281461832013,-0.06145935719059588,-0.4430925405091173,-0.8938523096731277,"(1.0, 0.0, 0.0, 0.0, 1.0, 0.0, 0.0, 0.0, 1.0)",-0.1813776195049286,-0.012090410105884079,-0.03275918960571289,"(1.2184696791468346e-07, 0.0, 0.0, 0.0, 1.2184696791468346e-07, 0.0, 0.0, 0.0, 1.2184696791468346e-07)",-1.4513842000000001,0.1863263500000012,9.67916355,"(8.999999999999999e-08, 0.0, 0.0, 0.0, 8.999999999999999e-08, 0.0, 0.0, 0.0, 8.999999999999999e-08)"
2025/07/05/17:44:26.042110,7381,1751712266,39368768,base_link,0.03034881959370899,-0.05998434537640794,-0.44353532645236676,-0.8937321979473631,"(1.0, 0.0, 0.0, 0.0, 1.0, 0.0, 0.0, 0.0, 1.0)",-0.009680328890681267,-0.023422515019774437,0.0018169241957366495,"(1.2184696791468346e-07, 0.0, 0.0, 0.0, 1.2184696791468346e-07, 0.0, 0.0, 0.0, 1.2184696791468346e-07)",-1.4121576,1.1745469517135507e-15,9.5909037,"(8.999999999999999e-08, 0.0, 0.0, 0.0, 8.999999999999999e-08, 0.0, 0.0, 0.0, 8.999999999999999e-08)"
2025/07/05/17:44:26.141613,7382,1751712266,139374144,base_link,0.02305377906339807,-0.06305761906633009,-0.44529604580962245,-0.892862638671199,"(1.0, 0.0, 0.0, 0.0, 1.0, 0.0, 0.0, 0.0, 1.0)",0.15129314363002777,-0.012403480708599085,0.04350085183978081,"(1.2184696791468346e-07, 0.0, 0.0, 0.0, 1.2184696791468346e-07, 0.0, 0.0, 0.0, 1.2184696791468346e-07)",-1.3925443,-0.07845319999999883,9.56148375,"(8.999999999999999e-08, 0.0, 0.0, 0.0, 8.999999999999999e-08, 0.0, 0.0, 0.0, 8.999999999999999e-08)"
2025/07/05/17:44:26.241824,7383,1751712266,239379008,base_link,0.014924191280662259,-0.06772484267580356,-0.4473607600529612,-0.8916607900788242,"(1.0, 0.0, 0.0, 0.0, 1.0, 0.0, 0.0, 0.0, 1.0)",0.1934724897146225,0.009134646505117423,0.057935930788517,"(1.2184696791468346e-07, 0.0, 0.0, 0.0, 1.2184696791468346e-07, 0.0, 0.0, 0.0, 1.2184696791468346e-07)",-1.4121576,0.03922660000000117,9.6301303,"(8.999999999999999e-08, 0.0, 0.0, 0.0, 8.999999999999999e-08, 0.0, 0.0, 0.0, 8.999999999999999e-08)"
2025/07/05/17:44:26.341557,7384,1751712266,339384896,base_link,0.012460437610449125,-0.07023706467416148,-0.44883502332592284,-0.8907629393259083,"(1.0, 0.0, 0.0, 0.0, 1.0, 0.0, 0.0, 0.0, 1.0)",0.08135294169187546,0.022796452045440677,0.03783237934112549,"(1.2184696791468346e-07, 0.0, 0.0, 0.0, 1.2184696791468346e-07, 0.0, 0.0, 0.0, 1.2184696791468346e-07)",-1.4317709,0.1765197000000012,9.6889702,"(8.999999999999999e-08, 0.0, 0.0, 0.0, 8.999999999999999e-08, 0.0, 0.0, 0.0, 8.999999999999999e-08)"
2025/07/05/17:44:26.482049,7385,1751712266,479394880,base_link,0.020792950356847112,-0.06715019505809637,-0.44883813256809624,-0.8908438893947139,"(1.0, 0.0, 0.0, 0.0, 1.0, 0.0, 0.0, 0.0, 1.0)",-0.1472163200378418,0.012165895663201807,-0.0187934972345829,"(1.2184696791468346e-07, 0.0, 0.0, 0.0, 1.2184696791468346e-07, 0.0, 0.0, 0.0, 1.2184696791468346e-07)",-1.44157755,0.33342610000000117,9.7281968,"(8.999999999999999e-08, 0.0, 0.0, 0.0, 8.999999999999999e-08, 0.0, 0.0, 0.0, 8.999999999999999e-08)"
2025/07/05/17:44:26.581959,7386,1751712266,579399744,base_link,0.028794036189162237,-0.06264799583914354,-0.4482779393247417,-0.8912311828095105,"(1.0, 0.0, 0.0, 0.0, 1.0, 0.0, 0.0, 0.0, 1.0)",-0.19075973331928253,-0.008569639176130298,-0.032186612486839294,"(1.2184696791468346e-07, 0.0, 0.0, 0.0, 1.2184696791468346e-07, 0.0, 0.0, 0.0, 1.2184696791468346e-07)",-1.44157755,0.2353596000000012,9.6693569,"(8.999999999999999e-08, 0.0, 0.0, 0.0, 8.999999999999999e-08, 0.0, 0.0, 0.0, 8.999999999999999e-08)"
2025/07/05/17:44:26.662537,7387,1751712266,659405120,base_link,0.031004024775029393,-0.06055572466786057,-0.44818998379626385,-0.8913458885765977,"(1.0, 0.0, 0.0, 0.0, 1.0, 0.0, 0.0, 0.0, 1.0)",-0.10437403619289398,-0.02157278917729855,-0.01849425211548805,"(1.2184696791468346e-07, 0.0, 0.0, 0.0, 1.2184696791468346e-07, 0.0, 0.0, 0.0, 1.2184696791468346e-07)",-1.42196425,0.08825985000000117,9.60071035,"(8.999999999999999e-08, 0.0, 0.0, 0.0, 8.999999999999999e-08, 0.0, 0.0, 0.0, 8.999999999999999e-08)"
2025/07/05/17:44:26.763315,7388,1751712266,759413312,base_link,0.02705345380468136,-0.06148308769273993,-0.4492027161724389,-0.890901150716682,"(1.0, 0.0, 0.0, 0.0, 1.0, 0.0, 0.0, 0.0, 1.0)",0.06736849248409271,-0.0210321694612503,0.019823797047138218,"(1.2184696791468346e-07, 0.0, 0.0, 0.0, 1.2184696791468346e-07, 0.0, 0.0, 0.0, 1.2184696791468346e-07)",-1.3925443,-0.019613299999998828,9.56148375,"(8.999999999999999e-08, 0.0, 0.0, 0.0, 8.999999999999999e-08, 0.0, 0.0, 0.0, 8.999999999999999e-08)"
2025/07/05/17:44:26.863017,7389,1751712266,860421504,base_link,0.01906918989749332,-0.06553841445858599,-0.45086898143484383,-0.8899765411553352,"(1.0, 0.0, 0.0, 0.0, 1.0, 0.0, 0.0, 0.0, 1.0)",0.1784379482269287,-0.0016463936772197429,0.04609965533018112,"(1.2184696791468346e-07, 0.0, 0.0, 0.0, 1.2184696791468346e-07, 0.0, 0.0, 0.0, 1.2184696791468346e-07)",-1.4121576,0.009806650000001174,9.58109705,"(8.999999999999999e-08, 0.0, 0.0, 0.0, 8.999999999999999e-08, 0.0, 0.0, 0.0, 8.999999999999999e-08)"
2025/07/05/17:44:26.981781,7390,1751712266,979427392,base_link,0.013672630013496638,-0.06966619604664614,-0.452430159560735,-0.8889694207545906,"(1.0, 0.0, 0.0, 0.0, 1.0, 0.0, 0.0, 0.0, 1.0)",0.11290234327316284,0.02159335464239121,0.034984637051820755,"(1.2184696791468346e-07, 0.0, 0.0, 0.0, 1.2184696791468346e-07, 0.0, 0.0, 0.0, 1.2184696791468346e-07)",-1.42196425,0.1372931000000012,9.67916355,"(8.999999999999999e-08, 0.0, 0.0, 0.0, 8.999999999999999e-08, 0.0, 0.0, 0.0, 8.999999999999999e-08)"
2025/07/05/17:44:27.063007,7391,1751712267,59433024,base_link,0.015595792410010226,-0.06960966097772975,-0.4526221724571751,-0.8888444382217939,"(1.0, 0.0, 0.0, 0.0, 1.0, 0.0, 0.0, 0.0, 1.0)",-0.012891038320958614,0.02245841547846794,0.005821800790727136,"(1.2184696791468346e-07, 0.0, 0.0, 0.0, 1.2184696791468346e-07, 0.0, 0.0, 0.0, 1.2184696791468346e-07)",-1.44157755,0.35303940000000117,9.73800345,"(8.999999999999999e-08, 0.0, 0.0, 0.0, 8.999999999999999e-08, 0.0, 0.0, 0.0, 8.999999999999999e-08)"
2025/07/05/17:44:27.162874,7392,1751712267,159433024,base_link,0.022956888088064367,-0.0662223899888017,-0.45205264537576373,-0.8892333676613002,"(1.0, 0.0, 0.0, 0.0, 1.0, 0.0, 0.0, 0.0, 1.0)",-0.15588976442813873,0.007349440827965733,-0.0281244907528162,"(1.2184696791468346e-07, 0.0, 0.0, 0.0, 1.2184696791468346e-07, 0.0, 0.0, 0.0, 1.2184696791468346e-07)",-1.4513842000000001,0.3040061500000012,9.73800345,"(8.999999999999999e-08, 0.0, 0.0, 0.0, 8.999999999999999e-08, 0.0, 0.0, 0.0, 8.999999999999999e-08)"
2025/07/05/17:44:27.263130,7393,1751712267,259439680,base_link,0.029689706456204723,-0.06197790466353329,-0.4514220502349772,-0.8896602684315581,"(1.0, 0.0, 0.0, 0.0, 1.0, 0.0, 0.0, 0.0, 1.0)",-0.1674652397632599,-0.013731112703680996,-0.03241068124771118,"(1.2184696791468346e-07, 0.0, 0.0, 0.0, 1.2184696791468346e-07, 0.0, 0.0, 0.0, 1.2184696791468346e-07)",-1.4317709,0.2059396500000012,9.67916355,"(8.999999999999999e-08, 0.0, 0.0, 0.0, 8.999999999999999e-08, 0.0, 0.0, 0.0, 8.999999999999999e-08)"
2025/07/05/17:44:27.362625,7394,1751712267,359445824,base_link,0.02953323099875801,-0.06078987654333249,-0.45152012309112177,-0.8896976776525827,"(1.0, 0.0, 0.0, 0.0, 1.0, 0.0, 0.0, 0.0, 1.0)",-0.02304389327764511,-0.023505333811044693,-0.0067371609620749924,"(1.2184696791468346e-07, 0.0, 0.0, 0.0, 1.2184696791468346e-07, 0.0, 0.0, 0.0, 1.2184696791468346e-07)",-1.40235095,0.05883990000000117,9.58109705,"(8.999999999999999e-08, 0.0, 0.0, 0.0, 8.999999999999999e-08, 0.0, 0.0, 0.0, 8.999999999999999e-08)"
2025/07/05/17:44:27.542223,7395,1751712267,539454016,base_link,0.01782459633825087,-0.06674774611036167,-0.4537561036438651,-0.8884438195859674,"(1.0, 0.0, 0.0, 0.0, 1.0, 0.0, 0.0, 0.0, 1.0)",0.17002835869789124,0.007098482921719556,0.03984450548887253,"(1.2184696791468346e-07, 0.0, 0.0, 0.0, 1.2184696791468346e-07, 0.0, 0.0, 0.0, 1.2184696791468346e-07)",-1.3925443,-0.07845319999999883,9.56148375,"(8.999999999999999e-08, 0.0, 0.0, 0.0, 8.999999999999999e-08, 0.0, 0.0, 0.0, 8.999999999999999e-08)"
2025/07/05/17:44:27.641395,7396,1751712267,639458880,base_link,0.015067035519225934,-0.06936769462262653,-0.45462490688597673,-0.8878498191824569,"(1.0, 0.0, 0.0, 0.0, 1.0, 0.0, 0.0, 0.0, 1.0)",0.08717092126607895,0.021895539015531543,0.02458544075489044,"(1.2184696791468346e-07, 0.0, 0.0, 0.0, 1.2184696791468346e-07, 0.0, 0.0, 0.0, 1.2184696791468346e-07)",-1.42196425,0.1765197000000012,9.7085835,"(8.999999999999999e-08, 0.0, 0.0, 0.0, 8.999999999999999e-08, 0.0, 0.0, 0.0, 8.999999999999999e-08)"
2025/07/05/17:44:27.742407,7397,1751712267,739464000,base_link,0.01862263364394967,-0.06835910966221917,-0.45446396260348637,-0.8879429803411303,"(1.0, 0.0, 0.0, 0.0, 1.0, 0.0, 0.0, 0.0, 1.0)",-0.06207973510026932,0.015842191874980927,-0.010697013698518278,"(1.2184696791468346e-07, 0.0, 0.0, 0.0, 1.2184696791468346e-07, 0.0, 0.0, 0.0, 1.2184696791468346e-07)",-1.44157755,0.3432327500000012,9.7674234,"(8.999999999999999e-08, 0.0, 0.0, 0.0, 8.999999999999999e-08, 0.0, 0.0, 0.0, 8.999999999999999e-08)"
2025/07/05/17:44:27.842243,7398,1751712267,839470656,base_link,0.025375460292712735,-0.06452767891280235,-0.45385460931045873,-0.8883739405659702,"(1.0, 0.0, 0.0, 0.0, 1.0, 0.0, 0.0, 0.0, 1.0)",-0.15553626418113708,-0.005456077400594953,-0.03032490238547325,"(1.2184696791468346e-07, 0.0, 0.0, 0.0, 1.2184696791468346e-07, 0.0, 0.0, 0.0, 1.2184696791468346e-07)",-1.4513842000000001,0.25497290000000117,9.71839015,"(8.999999999999999e-08, 0.0, 0.0, 0.0, 8.999999999999999e-08, 0.0, 0.0, 0.0, 8.999999999999999e-08)"
2025/07/05/17:44:27.962925,7399,1751712267,959482688,base_link,0.02885181071045407,-0.061382819274783604,-0.4536190833047423,-0.8886109664967976,"(1.0, 0.0, 0.0, 0.0, 1.0, 0.0, 0.0, 0.0, 1.0)",-0.07603616267442703,-0.02155452407896519,-0.01485422998666763,"(1.2184696791468346e-07, 0.0, 0.0, 0.0, 1.2184696791468346e-07, 0.0, 0.0, 0.0, 1.2184696791468346e-07)",-1.4121576,0.1274864500000012,9.6301303,"(8.999999999999999e-08, 0.0, 0.0, 0.0, 8.999999999999999e-08, 0.0, 0.0, 0.0, 8.999999999999999e-08)"
2025/07/05/17:44:28.062736,7400,1751712268,59488832,base_link,0.02517834962936747,-0.06269988218103066,-0.4543446299409747,-0.8882599465968422,"(1.0, 0.0, 0.0, 0.0, 1.0, 0.0, 0.0, 0.0, 1.0)",0.06987066566944122,-0.012054938822984694,0.015165995806455614,"(1.2184696791468346e-07, 0.0, 0.0, 0.0, 1.2184696791468346e-07, 0.0, 0.0, 0.0, 1.2184696791468346e-07)",-1.38273765,0.019613300000001173,9.56148375,"(8.999999999999999e-08, 0.0, 0.0, 0.0, 8.999999999999999e-08, 0.0, 0.0, 0.0, 8.999999999999999e-08)"
2025/07/05/17:44:28.162021,7401,1751712268,159488832,base_link,0.019483891432230723,-0.06622321916730098,-0.45545446274826923,-0.8875787827457696,"(1.0, 0.0, 0.0, 0.0, 1.0, 0.0, 0.0, 0.0, 1.0)",0.1374836415052414,0.009408945217728618,0.032206714153289795,"(1.2184696791468346e-07, 0.0, 0.0, 0.0, 1.2184696791468346e-07, 0.0, 0.0, 0.0, 1.2184696791468346e-07)",-1.40235095,0.029419950000001176,9.5909037,"(8.999999999999999e-08, 0.0, 0.0, 0.0, 8.999999999999999e-08, 0.0, 0.0, 0.0, 8.999999999999999e-08)"
2025/07/05/17:44:28.262467,7402,1751712268,259493440,base_link,0.017010176880207836,-0.06861698970643448,-0.456119624123405,-0.8871061103924689,"(1.0, 0.0, 0.0, 0.0, 1.0, 0.0, 0.0, 0.0, 1.0)",0.07819768786430359,0.020660305395722393,0.019156485795974728,"(1.2184696791468346e-07, 0.0, 0.0, 0.0, 1.2184696791468346e-07, 0.0, 0.0, 0.0, 1.2184696791468346e-07)",-1.4317709,0.1667130500000012,9.7085835,"(8.999999999999999e-08, 0.0, 0.0, 0.0, 8.999999999999999e-08, 0.0, 0.0, 0.0, 8.999999999999999e-08)"
2025/07/05/17:44:28.362761,7403,1751712268,359498816,base_link,0.019937559412513545,-0.06772843044331762,-0.4559391744315273,-0.8872061894808075,"(1.0, 0.0, 0.0, 0.0, 1.0, 0.0, 0.0, 0.0, 1.0)",-0.05002710968255997,0.012223256751894949,-0.010119034908711912,"(1.2184696791468346e-07, 0.0, 0.0, 0.0, 1.2184696791468346e-07, 0.0, 0.0, 0.0, 1.2184696791468346e-07)",-1.4317709,0.25497290000000117,9.75761675,"(8.999999999999999e-08, 0.0, 0.0, 0.0, 8.999999999999999e-08, 0.0, 0.0, 0.0, 8.999999999999999e-08)"
2025/07/05/17:44:28.562214,7404,1751712268,559507008,base_link,0.02830560460816488,-0.06200388887960992,-0.4553209489852701,-0.8877145621914312,"(1.0, 0.0, 0.0, 0.0, 1.0, 0.0, 0.0, 0.0, 1.0)",-0.08060494810342789,-0.01803411915898323,-0.014033824205398558,"(1.2184696791468346e-07, 0.0, 0.0, 0.0, 1.2184696791468346e-07, 0.0, 0.0, 0.0, 1.2184696791468346e-07)",-1.44157755,0.2255529500000012,9.7281968,"(8.999999999999999e-08, 0.0, 0.0, 0.0, 8.999999999999999e-08, 0.0, 0.0, 0.0, 8.999999999999999e-08)"
2025/07/05/17:44:28.663130,7405,1751712268,659507008,base_link,0.02521168922562991,-0.06292252991704278,-0.45612495780536166,-0.8873303493188353,"(1.0, 0.0, 0.0, 0.0, 1.0, 0.0, 0.0, 0.0, 1.0)",0.054151300340890884,-0.013206416741013525,0.015783565118908882,"(1.2184696791468346e-07, 0.0, 0.0, 0.0, 1.2184696791468346e-07, 0.0, 0.0, 0.0, 1.2184696791468346e-07)",-1.38273765,0.029419950000001173,9.5712904,"(8.999999999999999e-08, 0.0, 0.0, 0.0, 8.999999999999999e-08, 0.0, 0.0, 0.0, 8.999999999999999e-08)"
2025/07/05/17:44:28.762147,7406,1751712268,759507008,base_link,0.01970466270103934,-0.06605411273435888,-0.4574035430765676,-0.8865836560865068,"(1.0, 0.0, 0.0, 0.0, 1.0, 0.0, 0.0, 0.0, 1.0)",0.12865208089351654,0.003978286869823937,0.03493515029549599,"(1.2184696791468346e-07, 0.0, 0.0, 0.0, 1.2184696791468346e-07, 0.0, 0.0, 0.0, 1.2184696791468346e-07)",-1.38273765,0.03922660000000117,9.5909037,"(8.999999999999999e-08, 0.0, 0.0, 0.0, 8.999999999999999e-08, 0.0, 0.0, 0.0, 8.999999999999999e-08)"
2025/07/05/17:44:28.862135,7407,1751712268,859512384,base_link,0.017075368936765794,-0.06823519849339857,-0.45819507757245154,-0.8860641400884108,"(1.0, 0.0, 0.0, 0.0, 1.0, 0.0, 0.0, 0.0, 1.0)",0.07904555648565292,0.015625115483999256,0.02271218784153461,"(1.2184696791468346e-07, 0.0, 0.0, 0.0, 1.2184696791468346e-07, 0.0, 0.0, 0.0, 1.2184696791468346e-07)",-1.4121576,0.1470997500000012,9.65955025,"(8.999999999999999e-08, 0.0, 0.0, 0.0, 8.999999999999999e-08, 0.0, 0.0, 0.0, 8.999999999999999e-08)"
2025/07/05/17:44:28.963046,7408,1751712268,959519040,base_link,0.019828963375424034,-0.06735559795586964,-0.45813252234450996,-0.8861064425935072,"(1.0, 0.0, 0.0, 0.0, 1.0, 0.0, 0.0, 0.0, 1.0)",-0.04640870541334152,0.011140822432935236,-0.007371402345597746,"(1.2184696791468346e-07, 0.0, 0.0, 0.0, 1.2184696791468346e-07, 0.0, 0.0, 0.0, 1.2184696791468346e-07)",-1.42196425,0.2647795500000012,9.73800345,"(8.999999999999999e-08, 0.0, 0.0, 0.0, 8.999999999999999e-08, 0.0, 0.0, 0.0, 8.999999999999999e-08)"
2025/07/05/17:44:29.042684,7409,1751712269,39519040,base_link,0.024423142220525506,-0.06487657586423812,-0.4577489324191889,-0.8863748952318655,"(1.0, 0.0, 0.0, 0.0, 1.0, 0.0, 0.0, 0.0, 1.0)",-0.12266263365745544,4.4113956391808504e-05,-0.02342962473630905,"(1.2184696791468346e-07, 0.0, 0.0, 0.0, 1.2184696791468346e-07, 0.0, 0.0, 0.0, 1.2184696791468346e-07)",-1.42196425,0.2451662500000012,9.71839015,"(8.999999999999999e-08, 0.0, 0.0, 0.0, 8.999999999999999e-08, 0.0, 0.0, 0.0, 8.999999999999999e-08)"
2025/07/05/17:44:29.142416,7410,1751712269,139524160,base_link,0.028333765951671794,-0.06212131213091184,-0.45760471645461753,-0.8865303512935238,"(1.0, 0.0, 0.0, 0.0, 1.0, 0.0, 0.0, 0.0, 1.0)",-0.10511112213134766,-0.013029737398028375,-0.01707402803003788,"(1.2184696791468346e-07, 0.0, 0.0, 0.0, 1.2184696791468346e-07, 0.0, 0.0, 0.0, 1.2184696791468346e-07)",-1.4121576,0.1569064000000012,9.6693569,"(8.999999999999999e-08, 0.0, 0.0, 0.0, 8.999999999999999e-08, 0.0, 0.0, 0.0, 8.999999999999999e-08)"
2025/07/05/17:44:29.242128,7411,1751712269,239524160,base_link,0.0266289144614485,-0.06241398887781288,-0.458244060867137,-0.8862323485333632,"(1.0, 0.0, 0.0, 0.0, 1.0, 0.0, 0.0, 0.0, 1.0)",0.020335782319307327,-0.012230709195137022,0.009821351617574694,"(1.2184696791468346e-07, 0.0, 0.0, 0.0, 1.2184696791468346e-07, 0.0, 0.0, 0.0, 1.2184696791468346e-07)",-1.40235095,0.06864655000000118,9.5909037,"(8.999999999999999e-08, 0.0, 0.0, 0.0, 8.999999999999999e-08, 0.0, 0.0, 0.0, 8.999999999999999e-08)"
2025/07/05/17:44:29.341753,7412,1751712269,339529024,base_link,0.021280636065587617,-0.06536488581947365,-0.45958710245169637,-0.8854683853704236,"(1.0, 0.0, 0.0, 0.0, 1.0, 0.0, 0.0, 0.0, 1.0)",0.1204395592212677,0.0018540665041655345,0.0346749909222126,"(1.2184696791468346e-07, 0.0, 0.0, 0.0, 1.2184696791468346e-07, 0.0, 0.0, 0.0, 1.2184696791468346e-07)",-1.3925443,1.1745469517135507e-15,9.5909037,"(8.999999999999999e-08, 0.0, 0.0, 0.0, 8.999999999999999e-08, 0.0, 0.0, 0.0, 8.999999999999999e-08)"
2025/07/05/17:44:29.522936,7413,1751712269,520539776,base_link,0.017890158675149384,-0.06852655016669364,-0.46089111433572505,-0.8846261554301924,"(1.0, 0.0, 0.0, 0.0, 1.0, 0.0, 0.0, 0.0, 1.0)",0.01585671678185463,0.01410565059632063,0.008503954857587813,"(1.2184696791468346e-07, 0.0, 0.0, 0.0, 1.2184696791468346e-07, 0.0, 0.0, 0.0, 1.2184696791468346e-07)",-1.4121576,0.1372931000000012,9.639936950000001,"(8.999999999999999e-08, 0.0, 0.0, 0.0, 8.999999999999999e-08, 0.0, 0.0, 0.0, 8.999999999999999e-08)"
2025/07/05/17:44:29.625710,7414,1751712269,623545664,base_link,0.02292949387664446,-0.06589447588379554,-0.46056838011164036,-0.884877914516969,"(1.0, 0.0, 0.0, 0.0, 1.0, 0.0, 0.0, 0.0, 1.0)",-0.10835158079862595,0.0009188544936478114,-0.019109899178147316,"(1.2184696791468346e-07, 0.0, 0.0, 0.0, 1.2184696791468346e-07, 0.0, 0.0, 0.0, 1.2184696791468346e-07)",-1.4317709,0.3040061500000012,9.73800345,"(8.999999999999999e-08, 0.0, 0.0, 0.0, 8.999999999999999e-08, 0.0, 0.0, 0.0, 8.999999999999999e-08)"
2025/07/05/17:44:29.703324,7415,1751712269,700552320,base_link,0.027381601406070363,-0.06303643921345628,-0.46032248142227405,-0.8850874919085501,"(1.0, 0.0, 0.0, 0.0, 1.0, 0.0, 0.0, 0.0, 1.0)",-0.13883282244205475,-0.010480678640306,-0.02359568327665329,"(1.2184696791468346e-07, 0.0, 0.0, 0.0, 1.2184696791468346e-07, 0.0, 0.0, 0.0, 1.2184696791468346e-07)",-1.4317709,0.2157463000000012,9.69877685,"(8.999999999999999e-08, 0.0, 0.0, 0.0, 8.999999999999999e-08, 0.0, 0.0, 0.0, 8.999999999999999e-08)"
2025/07/05/17:44:29.783195,7416,1751712269,779557184,base_link,0.02882522951912472,-0.061499753124868016,-0.4604799199349998,-0.8850678673669077,"(1.0, 0.0, 0.0, 0.0, 1.0, 0.0, 0.0, 0.0, 1.0)",-0.07598622143268585,-0.01724061369895935,-0.009174381382763384,"(1.2184696791468346e-07, 0.0, 0.0, 0.0, 1.2184696791468346e-07, 0.0, 0.0, 0.0, 1.2184696791468346e-07)",-1.4121576,0.11767980000000118,9.6301303,"(8.999999999999999e-08, 0.0, 0.0, 0.0, 8.999999999999999e-08, 0.0, 0.0, 0.0, 8.999999999999999e-08)"
2025/07/05/17:44:29.862263,7417,1751712269,859557184,base_link,0.02641683033247853,-0.06231964090795234,-0.4612774279249617,-0.8846703046441768,"(1.0, 0.0, 0.0, 0.0, 1.0, 0.0, 0.0, 0.0, 1.0)",0.03737375885248184,-0.012768693268299101,0.016624506562948227,"(1.2184696791468346e-07, 0.0, 0.0, 0.0, 1.2184696791468346e-07, 0.0, 0.0, 0.0, 1.2184696791468346e-07)",-1.38273765,0.029419950000001173,9.5712904,"(8.999999999999999e-08, 0.0, 0.0, 0.0, 8.999999999999999e-08, 0.0, 0.0, 0.0, 8.999999999999999e-08)"
2025/07/05/17:44:29.982770,7418,1751712269,979563072,base_link,0.019785723434669136,-0.0663494602234587,-0.4630858021270357,-0.883605010253214,"(1.0, 0.0, 0.0, 0.0, 1.0, 0.0, 0.0, 0.0, 1.0)",0.13434477150440216,0.008372813463211065,0.041699331253767014,"(1.2184696791468346e-07, 0.0, 0.0, 0.0, 1.2184696791468346e-07, 0.0, 0.0, 0.0, 1.2184696791468346e-07)",-1.38273765,0.009806650000001174,9.5909037,"(8.999999999999999e-08, 0.0, 0.0, 0.0, 8.999999999999999e-08, 0.0, 0.0, 0.0, 8.999999999999999e-08)"
2025/07/05/17:44:30.062680,7419,1751712270,59568192,base_link,0.017246671986639355,-0.06848772537181988,-0.46394305823047244,-0.8830451984460002,"(1.0, 0.0, 0.0, 0.0, 1.0, 0.0, 0.0, 0.0, 1.0)",0.09989925473928452,0.017343237996101383,0.03234328329563141,"(1.2184696791468346e-07, 0.0, 0.0, 0.0, 1.2184696791468346e-07, 0.0, 0.0, 0.0, 1.2184696791468346e-07)",-1.42196425,0.1863263500000012,9.6889702,"(8.999999999999999e-08, 0.0, 0.0, 0.0, 8.999999999999999e-08, 0.0, 0.0, 0.0, 8.999999999999999e-08)"
2025/07/05/17:44:30.162754,7420,1751712270,159568192,base_link,0.019001856889036113,-0.06821639979610869,-0.4642486036200467,-0.882869574892273,"(1.0, 0.0, 0.0, 0.0, 1.0, 0.0, 0.0, 0.0, 1.0)",-0.022596348077058792,0.013135069981217384,0.0032303927000612003,"(1.2184696791468346e-07, 0.0, 0.0, 0.0, 1.2184696791468346e-07, 0.0, 0.0, 0.0, 1.2184696791468346e-07)",-1.4317709,0.29419950000000117,9.71839015,"(8.999999999999999e-08, 0.0, 0.0, 0.0, 8.999999999999999e-08, 0.0, 0.0, 0.0, 8.999999999999999e-08)"
2025/07/05/17:44:30.262136,7421,1751712270,259568192,base_link,0.024334734395713715,-0.06513267794421901,-0.4640508328952707,-0.8830755230754108,"(1.0, 0.0, 0.0, 0.0, 1.0, 0.0, 0.0, 0.0, 1.0)",-0.12229293584823608,-0.003674039151519539,-0.017835065722465515,"(1.2184696791468346e-07, 0.0, 0.0, 0.0, 1.2184696791468346e-07, 0.0, 0.0, 0.0, 1.2184696791468346e-07)",-1.42196425,0.2843928500000012,9.71839015,"(8.999999999999999e-08, 0.0, 0.0, 0.0, 8.999999999999999e-08, 0.0, 0.0, 0.0, 8.999999999999999e-08)"
2025/07/05/17:44:30.362669,7422,1751712270,359573312,base_link,0.027892791170356212,-0.06228048950676316,-0.46420418825211907,-0.883095467340149,"(1.0, 0.0, 0.0, 0.0, 1.0, 0.0, 0.0, 0.0, 1.0)",-0.10154209285974503,-0.01753346621990204,-0.010301459580659865,"(1.2184696791468346e-07, 0.0, 0.0, 0.0, 1.2184696791468346e-07, 0.0, 0.0, 0.0, 1.2184696791468346e-07)",-1.42196425,0.1569064000000012,9.6301303,"(8.999999999999999e-08, 0.0, 0.0, 0.0, 8.999999999999999e-08, 0.0, 0.0, 0.0, 8.999999999999999e-08)"
2025/07/05/17:44:30.503775,7423,1751712270,500580480,base_link,0.0249111596692943,-0.06316322428990301,-0.46557195455620287,-0.8824016071789259,"(1.0, 0.0, 0.0, 0.0, 1.0, 0.0, 0.0, 0.0, 1.0)",0.05735522508621216,-0.007062071003019807,0.02438228391110897,"(1.2184696791468346e-07, 0.0, 0.0, 0.0, 1.2184696791468346e-07, 0.0, 0.0, 0.0, 1.2184696791468346e-07)",-1.40235095,0.07845320000000117,9.5909037,"(8.999999999999999e-08, 0.0, 0.0, 0.0, 8.999999999999999e-08, 0.0, 0.0, 0.0, 8.999999999999999e-08)"
2025/07/05/17:44:30.622890,7424,1751712270,620587392,base_link,0.020185557663864016,-0.06653773605397674,-0.46713353661241364,-0.8814485418415466,"(1.0, 0.0, 0.0, 0.0, 1.0, 0.0, 0.0, 0.0, 1.0)",0.0981440544128418,0.014092417433857921,0.034285858273506165,"(1.2184696791468346e-07, 0.0, 0.0, 0.0, 1.2184696791468346e-07, 0.0, 0.0, 0.0, 1.2184696791468346e-07)",-1.40235095,0.07845320000000118,9.65955025,"(8.999999999999999e-08, 0.0, 0.0, 0.0, 8.999999999999999e-08, 0.0, 0.0, 0.0, 8.999999999999999e-08)"
2025/07/05/17:44:30.722717,7425,1751712270,719594304,base_link,0.019647459930436435,-0.06767899198128402,-0.4677530496873813,-0.8810451837850506,"(1.0, 0.0, 0.0, 0.0, 1.0, 0.0, 0.0, 0.0, 1.0)",0.029249798506498337,0.016555568203330043,0.0145038990303874,"(1.2184696791468346e-07, 0.0, 0.0, 0.0, 1.2184696791468346e-07, 0.0, 0.0, 0.0, 1.2184696791468346e-07)",-1.42196425,0.1961330000000012,9.69877685,"(8.999999999999999e-08, 0.0, 0.0, 0.0, 8.999999999999999e-08, 0.0, 0.0, 0.0, 8.999999999999999e-08)"
2025/07/05/17:44:30.822802,7426,1751712270,820600704,base_link,0.022906643805496386,-0.06593266931001755,-0.4678297315519114,-0.881058176889183,"(1.0, 0.0, 0.0, 0.0, 1.0, 0.0, 0.0, 0.0, 1.0)",-0.0694940909743309,0.0013282831059768787,-0.006907247938215733,"(1.2184696791468346e-07, 0.0, 0.0, 0.0, 1.2184696791468346e-07, 0.0, 0.0, 0.0, 1.2184696791468346e-07)",-1.42196425,0.2451662500000012,9.7281968,"(8.999999999999999e-08, 0.0, 0.0, 0.0, 8.999999999999999e-08, 0.0, 0.0, 0.0, 8.999999999999999e-08)"
2025/07/05/17:44:30.942217,7427,1751712270,939606848,base_link,0.026640714926549198,-0.06295524074168686,-0.46799283105861544,-0.8810843433231013,"(1.0, 0.0, 0.0, 0.0, 1.0, 0.0, 0.0, 0.0, 1.0)",-0.08155442774295807,-0.016620684415102005,-0.007542999926954506,"(1.2184696791468346e-07, 0.0, 0.0, 0.0, 1.2184696791468346e-07, 0.0, 0.0, 0.0, 1.2184696791468346e-07)",-1.42196425,0.2059396500000012,9.65955025,"(8.999999999999999e-08, 0.0, 0.0, 0.0, 8.999999999999999e-08, 0.0, 0.0, 0.0, 8.999999999999999e-08)"
2025/07/05/17:44:31.041924,7428,1751712271,39613504,base_link,0.02570612265738368,-0.0627812397533678,-0.46866349438542776,-0.8807679831961387,"(1.0, 0.0, 0.0, 0.0, 1.0, 0.0, 0.0, 0.0, 1.0)",0.006424983963370323,-0.014503965154290198,0.010517441667616369,"(1.2184696791468346e-07, 0.0, 0.0, 0.0, 1.2184696791468346e-07, 0.0, 0.0, 0.0, 1.2184696791468346e-07)",-1.3925443,0.08825985000000117,9.58109705,"(8.999999999999999e-08, 0.0, 0.0, 0.0, 8.999999999999999e-08, 0.0, 0.0, 0.0, 8.999999999999999e-08)"
2025/07/05/17:44:31.142242,7429,1751712271,139613504,base_link,0.022514252507487925,-0.0647884381236357,-0.469809451355671,-0.8800992251652152,"(1.0, 0.0, 0.0, 0.0, 1.0, 0.0, 0.0, 0.0, 1.0)",0.07529821246862411,0.0032708509825170075,0.02783510833978653,"(1.2184696791468346e-07, 0.0, 0.0, 0.0, 1.2184696791468346e-07, 0.0, 0.0, 0.0, 1.2184696791468346e-07)",-1.40235095,0.03922660000000117,9.610517,"(8.999999999999999e-08, 0.0, 0.0, 0.0, 8.999999999999999e-08, 0.0, 0.0, 0.0, 8.999999999999999e-08)"
2025/07/05/17:44:31.242130,7430,1751712271,239618112,base_link,0.0205127013972071,-0.06688244966589399,-0.470636976751467,-0.8795492044918904,"(1.0, 0.0, 0.0, 0.0, 1.0, 0.0, 0.0, 0.0, 1.0)",0.061220474541187286,0.017309296876192096,0.02219128794968128,"(1.2184696791468346e-07, 0.0, 0.0, 0.0, 1.2184696791468346e-07, 0.0, 0.0, 0.0, 1.2184696791468346e-07)",-1.40235095,0.1470997500000012,9.6889702,"(8.999999999999999e-08, 0.0, 0.0, 0.0, 8.999999999999999e-08, 0.0, 0.0, 0.0, 8.999999999999999e-08)"
2025/07/05/17:44:31.342335,7431,1751712271,339622976,base_link,0.021889793036729655,-0.06682962368421218,-0.47085891768215227,-0.8794012269710726,"(1.0, 0.0, 0.0, 0.0, 1.0, 0.0, 0.0, 0.0, 1.0)",-0.01718142069876194,0.013252906501293182,0.0014171118382364496,"(1.2184696791468346e-07, 0.0, 0.0, 0.0, 1.2184696791468346e-07, 0.0, 0.0, 0.0, 1.2184696791468346e-07)",-1.4317709,0.2353596000000012,9.7478101,"(8.999999999999999e-08, 0.0, 0.0, 0.0, 8.999999999999999e-08, 0.0, 0.0, 0.0, 8.999999999999999e-08)"
2025/07/05/17:44:31.463445,7432,1751712271,459633728,base_link,0.025764726312578447,-0.0643777872337771,-0.4706569556146082,-0.8795872381523673,"(1.0, 0.0, 0.0, 0.0, 1.0, 0.0, 0.0, 0.0, 1.0)",-0.07946661859750748,-0.0064239241182804125,-0.014245648868381977,"(1.2184696791468346e-07, 0.0, 0.0, 0.0, 1.2184696791468346e-07, 0.0, 0.0, 0.0, 1.2184696791468346e-07)",-1.4317709,0.25497290000000117,9.7281968,"(8.999999999999999e-08, 0.0, 0.0, 0.0, 8.999999999999999e-08, 0.0, 0.0, 0.0, 8.999999999999999e-08)"
2025/07/05/17:44:31.603670,7433,1751712271,601639872,base_link,0.025806703265625702,-0.06328464546175558,-0.47102707743301786,-0.8794672023675754,"(1.0, 0.0, 0.0, 0.0, 1.0, 0.0, 0.0, 0.0, 1.0)",0.0010940348729491234,-0.014470729976892471,0.0032199956476688402,"(1.2184696791468346e-07, 0.0, 0.0, 0.0, 1.2184696791468346e-07, 0.0, 0.0, 0.0, 1.2184696791468346e-07)",-1.40235095,0.09806650000000117,9.58109705,"(8.999999999999999e-08, 0.0, 0.0, 0.0, 8.999999999999999e-08, 0.0, 0.0, 0.0, 8.999999999999999e-08)"
2025/07/05/17:44:31.683178,7434,1751712271,680639872,base_link,0.023389799954882606,-0.0645127016420327,-0.47166926762967937,-0.8791013198480585,"(1.0, 0.0, 0.0, 0.0, 1.0, 0.0, 0.0, 0.0, 1.0)",0.06097088009119034,-0.004896155558526514,0.017623314633965492,"(1.2184696791468346e-07, 0.0, 0.0, 0.0, 1.2184696791468346e-07, 0.0, 0.0, 0.0, 1.2184696791468346e-07)",-1.3925443,0.06864655000000118,9.58109705,"(8.999999999999999e-08, 0.0, 0.0, 0.0, 8.999999999999999e-08, 0.0, 0.0, 0.0, 8.999999999999999e-08)"
2025/07/05/17:44:31.783938,7435,1751712271,779639872,base_link,0.0208937870068242,-0.0664616267682629,-0.47250544621601626,-0.8785698066335039,"(1.0, 0.0, 0.0, 0.0, 1.0, 0.0, 0.0, 0.0, 1.0)",0.06710996478796005,0.010439643636345867,0.02135585807263851,"(1.2184696791468346e-07, 0.0, 0.0, 0.0, 1.2184696791468346e-07, 0.0, 0.0, 0.0, 1.2184696791468346e-07)",-1.4121576,0.07845320000000118,9.639936950000001,"(8.999999999999999e-08, 0.0, 0.0, 0.0, 8.999999999999999e-08, 0.0, 0.0, 0.0, 8.999999999999999e-08)"
2025/07/05/17:44:31.862008,7436,1751712271,859639872,base_link,0.021011109935171027,-0.06701062166099107,-0.47276073133992874,-0.8783879557159442,"(1.0, 0.0, 0.0, 0.0, 1.0, 0.0, 0.0, 0.0, 1.0)",0.020072048529982567,0.014551433734595777,0.008947281166911123,"(1.2184696791468346e-07, 0.0, 0.0, 0.0, 1.2184696791468346e-07, 0.0, 0.0, 0.0, 1.2184696791468346e-07)",-1.4317709,0.2255529500000012,9.7085835,"(8.999999999999999e-08, 0.0, 0.0, 0.0, 8.999999999999999e-08, 0.0, 0.0, 0.0, 8.999999999999999e-08)"
2025/07/05/17:44:31.981563,7437,1751712271,979646528,base_link,0.024606155639557217,-0.0652413324648072,-0.4726056265715234,-0.8785112562601551,"(1.0, 0.0, 0.0, 0.0, 1.0, 0.0, 0.0, 0.0, 1.0)",-0.06956429779529572,0.002454272704198955,-0.01218424178659916,"(1.2184696791468346e-07, 0.0, 0.0, 0.0, 1.2184696791468346e-07, 0.0, 0.0, 0.0, 1.2184696791468346e-07)",-1.4317709,0.2353596000000012,9.73800345,"(8.999999999999999e-08, 0.0, 0.0, 0.0, 8.999999999999999e-08, 0.0, 0.0, 0.0, 8.999999999999999e-08)"
2025/07/05/17:44:32.062700,7438,1751712272,59651648,base_link,0.026803328218026726,-0.06355122879183975,-0.47246272650200644,-0.8786477081184324,"(1.0, 0.0, 0.0, 0.0, 1.0, 0.0, 0.0, 0.0, 1.0)",-0.07594643533229828,-0.009373507462441923,-0.014489954337477682,"(1.2184696791468346e-07, 0.0, 0.0, 0.0, 1.2184696791468346e-07, 0.0, 0.0, 0.0, 1.2184696791468346e-07)",-1.4317709,0.1667130500000012,9.6693569,"(8.999999999999999e-08, 0.0, 0.0, 0.0, 8.999999999999999e-08, 0.0, 0.0, 0.0, 8.999999999999999e-08)"
2025/07/05/17:44:32.161751,7439,1751712272,159655488,base_link,0.026370931500163095,-0.06302313898531935,-0.47262834631928363,-0.878609756478808,"(1.0, 0.0, 0.0, 0.0, 1.0, 0.0, 0.0, 0.0, 1.0)",-0.0063367486000061035,-0.014006899669766426,-0.0017096841474995,"(1.2184696791468346e-07, 0.0, 0.0, 0.0, 1.2184696791468346e-07, 0.0, 0.0, 0.0, 1.2184696791468346e-07)",-1.4121576,0.10787315000000117,9.58109705,"(8.999999999999999e-08, 0.0, 0.0, 0.0, 8.999999999999999e-08, 0.0, 0.0, 0.0, 8.999999999999999e-08)"
2025/07/05/17:44:32.262982,7440,1751712272,260661120,base_link,0.02326849170234275,-0.06465631133879032,-0.4732226718079894,-0.8782587554843206,"(1.0, 0.0, 0.0, 0.0, 1.0, 0.0, 0.0, 0.0, 1.0)",0.06797827780246735,-0.0023320107720792276,0.014542111195623875,"(1.2184696791468346e-07, 0.0, 0.0, 0.0, 1.2184696791468346e-07, 0.0, 0.0, 0.0, 1.2184696791468346e-07)",-1.3925443,0.05883990000000117,9.5909037,"(8.999999999999999e-08, 0.0, 0.0, 0.0, 8.999999999999999e-08, 0.0, 0.0, 0.0, 8.999999999999999e-08)"
2025/07/05/17:44:32.362799,7441,1751712272,359666496,base_link,0.02098232200281572,-0.06669469114725769,-0.47370138433698983,-0.877905780145775,"(1.0, 0.0, 0.0, 0.0, 1.0, 0.0, 0.0, 0.0, 1.0)",0.0654623806476593,0.01338623557239771,0.01396689750254154,"(1.2184696791468346e-07, 0.0, 0.0, 0.0, 1.2184696791468346e-07, 0.0, 0.0, 0.0, 1.2184696791468346e-07)",-1.42196425,0.1274864500000012,9.65955025,"(8.999999999999999e-08, 0.0, 0.0, 0.0, 8.999999999999999e-08, 0.0, 0.0, 0.0, 8.999999999999999e-08)"
2025/07/05/17:44:32.562999,7442,1751712272,560679296,base_link,0.02493098749907561,-0.06524995237841058,-0.4733203623124167,-0.878116577794417,"(1.0, 0.0, 0.0, 0.0, 1.0, 0.0, 0.0, 0.0, 1.0)",-0.06887451559305191,-7.277680560946669e-05,-0.01668582111597061,"(1.2184696791468346e-07, 0.0, 0.0, 0.0, 1.2184696791468346e-07, 0.0, 0.0, 0.0, 1.2184696791468346e-07)",-1.44157755,0.2451662500000012,9.7281968,"(8.999999999999999e-08, 0.0, 0.0, 0.0, 8.999999999999999e-08, 0.0, 0.0, 0.0, 8.999999999999999e-08)"
2025/07/05/17:44:32.663001,7443,1751712272,659679296,base_link,0.026619964177961974,-0.06347973255126146,-0.4731422299429063,-0.8782927366812494,"(1.0, 0.0, 0.0, 0.0, 1.0, 0.0, 0.0, 0.0, 1.0)",-0.052971091121435165,-0.01471511833369732,-0.013135260902345179,"(1.2184696791468346e-07, 0.0, 0.0, 0.0, 1.2184696791468346e-07, 0.0, 0.0, 0.0, 1.2184696791468346e-07)",-1.4317709,0.1470997500000012,9.639936950000001,"(8.999999999999999e-08, 0.0, 0.0, 0.0, 8.999999999999999e-08, 0.0, 0.0, 0.0, 8.999999999999999e-08)"
2025/07/05/17:44:32.783000,7444,1751712272,779683136,base_link,0.02446614118104487,-0.06402896673142115,-0.47342009505861604,-0.8781657662137067,"(1.0, 0.0, 0.0, 0.0, 1.0, 0.0, 0.0, 0.0, 1.0)",0.03849882259964943,-0.009743504226207733,0.004855998791754247,"(1.2184696791468346e-07, 0.0, 0.0, 0.0, 1.2184696791468346e-07, 0.0, 0.0, 0.0, 1.2184696791468346e-07)",-1.40235095,0.10787315000000117,9.56148375,"(8.999999999999999e-08, 0.0, 0.0, 0.0, 8.999999999999999e-08, 0.0, 0.0, 0.0, 8.999999999999999e-08)"
2025/07/05/17:44:32.862648,7445,1751712272,859683136,base_link,0.02255046992242842,-0.06539397324155496,-0.4737291782958386,-0.8779497538020669,"(1.0, 0.0, 0.0, 0.0, 1.0, 0.0, 0.0, 0.0, 1.0)",0.061932507902383804,0.004199803806841374,0.010322501882910728,"(1.2184696791468346e-07, 0.0, 0.0, 0.0, 1.2184696791468346e-07, 0.0, 0.0, 0.0, 1.2184696791468346e-07)",-1.42196425,0.08825985000000118,9.6301303,"(8.999999999999999e-08, 0.0, 0.0, 0.0, 8.999999999999999e-08, 0.0, 0.0, 0.0, 8.999999999999999e-08)"
2025/07/05/17:44:32.981988,7446,1751712272,979687488,base_link,0.022261106234864075,-0.06656756909751185,-0.47380121318977264,-0.8778300588801613,"(1.0, 0.0, 0.0, 0.0, 1.0, 0.0, 0.0, 0.0, 1.0)",0.01404811441898346,0.01576714776456356,-0.0004399468889459987,"(1.2184696791468346e-07, 0.0, 0.0, 0.0, 1.2184696791468346e-07, 0.0, 0.0, 0.0, 1.2184696791468346e-07)",-1.4317709,0.1765197000000012,9.67916355,"(8.999999999999999e-08, 0.0, 0.0, 0.0, 8.999999999999999e-08, 0.0, 0.0, 0.0, 8.999999999999999e-08)"
2025/07/05/17:44:33.062242,7447,1751712273,59692096,base_link,0.023941290786407467,-0.06596720244340251,-0.47363008975643794,-0.8779235051384491,"(1.0, 0.0, 0.0, 0.0, 1.0, 0.0, 0.0, 0.0, 1.0)",-0.035507459193468094,0.009293435141444205,-0.010302148759365084,"(1.2184696791468346e-07, 0.0, 0.0, 0.0, 1.2184696791468346e-07, 0.0, 0.0, 0.0, 1.2184696791468346e-07)",-1.4317709,0.2059396500000012,9.71839015,"(8.999999999999999e-08, 0.0, 0.0, 0.0, 8.999999999999999e-08, 0.0, 0.0, 0.0, 8.999999999999999e-08)"
2025/07/05/17:44:33.162078,7448,1751712273,159692096,base_link,0.025791198779132527,-0.0644988975006672,-0.4734813686109407,-0.8780604192565818,"(1.0, 0.0, 0.0, 0.0, 1.0, 0.0, 0.0, 0.0, 1.0)",-0.050775863230228424,-0.007338218856602909,-0.011580934748053549,"(1.2184696791468346e-07, 0.0, 0.0, 0.0, 1.2184696791468346e-07, 0.0, 0.0, 0.0, 1.2184696791468346e-07)",-1.44157755,0.1863263500000012,9.67916355,"(8.999999999999999e-08, 0.0, 0.0, 0.0, 8.999999999999999e-08, 0.0, 0.0, 0.0, 8.999999999999999e-08)"
2025/07/05/17:44:33.241854,7449,1751712273,239692096,base_link,0.02545973753210768,-0.06397093235056298,-0.47360171056600003,-0.8780438151527261,"(1.0, 0.0, 0.0, 0.0, 1.0, 0.0, 0.0, 0.0, 1.0)",-0.01219726912677288,-0.015278792008757591,-0.003128399606794117,"(1.2184696791468346e-07, 0.0, 0.0, 0.0, 1.2184696791468346e-07, 0.0, 0.0, 0.0, 1.2184696791468346e-07)",-1.4317709,0.11767980000000117,9.60071035,"(8.999999999999999e-08, 0.0, 0.0, 0.0, 8.999999999999999e-08, 0.0, 0.0, 0.0, 8.999999999999999e-08)"
2025/07/05/17:44:33.342898,7450,1751712273,339696960,base_link,0.023105740522104037,-0.06478427773736774,-0.4739414731470044,-0.877865936316144,"(1.0, 0.0, 0.0, 0.0, 1.0, 0.0, 0.0, 0.0, 1.0)",0.047220099717378616,-0.009513350203633307,0.007572348229587079,"(1.2184696791468346e-07, 0.0, 0.0, 0.0, 1.2184696791468346e-07, 0.0, 0.0, 0.0, 1.2184696791468346e-07)",-1.4121576,0.10787315000000117,9.5909037,"(8.999999999999999e-08, 0.0, 0.0, 0.0, 8.999999999999999e-08, 0.0, 0.0, 0.0, 8.999999999999999e-08)"
2025/07/05/17:44:33.503169,7451,1751712273,500706944,base_link,0.021677236599334185,-0.06639233435665315,-0.4741217717227724,-0.877684852854685,"(1.0, 0.0, 0.0, 0.0, 1.0, 0.0, 0.0, 0.0, 1.0)",0.016824759542942047,0.01241734717041254,-0.00045906309969723376,"(1.2184696791468346e-07, 0.0, 0.0, 0.0, 1.2184696791468346e-07, 0.0, 0.0, 0.0, 1.2184696791468346e-07)",-1.42196425,0.1372931000000012,9.6497436,"(8.999999999999999e-08, 0.0, 0.0, 0.0, 8.999999999999999e-08, 0.0, 0.0, 0.0, 8.999999999999999e-08)"
2025/07/05/17:44:33.603950,7452,1751712273,601712320,base_link,0.02416944440604169,-0.065596528512607,-0.47386949622173924,-0.8778158314559799,"(1.0, 0.0, 0.0, 0.0, 1.0, 0.0, 0.0, 0.0, 1.0)",-0.04707280173897743,0.010750059038400648,-0.012311926111578943,"(1.2184696791468346e-07, 0.0, 0.0, 0.0, 1.2184696791468346e-07, 0.0, 0.0, 0.0, 1.2184696791468346e-07)",-1.4513842000000001,0.2255529500000012,9.7085835,"(8.999999999999999e-08, 0.0, 0.0, 0.0, 8.999999999999999e-08, 0.0, 0.0, 0.0, 8.999999999999999e-08)"
2025/07/05/17:44:33.683052,7453,1751712273,679712320,base_link,0.026417784002681088,-0.06435033935925161,-0.4736692969970359,-0.877951326438471,"(1.0, 0.0, 0.0, 0.0, 1.0, 0.0, 0.0, 0.0, 1.0)",-0.06687615066766739,0.0018348414450883848,-0.01469443365931511,"(1.2184696791468346e-07, 0.0, 0.0, 0.0, 1.2184696791468346e-07, 0.0, 0.0, 0.0, 1.2184696791468346e-07)",-1.44157755,0.2059396500000012,9.67916355,"(8.999999999999999e-08, 0.0, 0.0, 0.0, 8.999999999999999e-08, 0.0, 0.0, 0.0, 8.999999999999999e-08)"
2025/07/05/17:44:33.782179,7454,1751712273,779716928,base_link,0.02677288531676031,-0.0636695840260493,-0.47370189985466515,-0.8779726116205712,"(1.0, 0.0, 0.0, 0.0, 1.0, 0.0, 0.0, 0.0, 1.0)",-0.020829999819397926,-0.008627120405435562,-0.005057822912931441,"(1.2184696791468346e-07, 0.0, 0.0, 0.0, 1.2184696791468346e-07, 0.0, 0.0, 0.0, 1.2184696791468346e-07)",-1.42196425,0.11767980000000118,9.6301303,"(8.999999999999999e-08, 0.0, 0.0, 0.0, 8.999999999999999e-08, 0.0, 0.0, 0.0, 8.999999999999999e-08)"
2025/07/05/17:44:33.862302,7455,1751712273,859716928,base_link,0.02478043290163469,-0.06438013876852851,-0.4739657374166633,-0.877836891245994,"(1.0, 0.0, 0.0, 0.0, 1.0, 0.0, 0.0, 0.0, 1.0)",0.04105009883642197,-0.009045283310115337,0.005588752683252097,"(1.2184696791468346e-07, 0.0, 0.0, 0.0, 1.2184696791468346e-07, 0.0, 0.0, 0.0, 1.2184696791468346e-07)",-1.4121576,0.08825985000000117,9.5909037,"(8.999999999999999e-08, 0.0, 0.0, 0.0, 8.999999999999999e-08, 0.0, 0.0, 0.0, 8.999999999999999e-08)"
2025/07/05/17:44:33.982264,7456,1751712273,979722816,base_link,0.021360488002362663,-0.06622932681158383,-0.474557730338958,-0.8774692965556814,"(1.0, 0.0, 0.0, 0.0, 1.0, 0.0, 0.0, 0.0, 1.0)",0.06693702936172485,0.0004985639825463311,0.013427731581032276,"(1.2184696791468346e-07, 0.0, 0.0, 0.0, 1.2184696791468346e-07, 0.0, 0.0, 0.0, 1.2184696791468346e-07)",-1.42196425,0.10787315000000118,9.6301303,"(8.999999999999999e-08, 0.0, 0.0, 0.0, 8.999999999999999e-08, 0.0, 0.0, 0.0, 8.999999999999999e-08)"
2025/07/05/17:44:34.061808,7457,1751712274,59726912,base_link,0.02090070390245531,-0.06672939118125196,-0.47473510827025,-0.877346525555664,"(1.0, 0.0, 0.0, 0.0, 1.0, 0.0, 0.0, 0.0, 1.0)",0.02894573286175728,0.005702036432921887,0.0060045337304472915,"(1.2184696791468346e-07, 0.0, 0.0, 0.0, 1.2184696791468346e-07, 0.0, 0.0, 0.0, 1.2184696791468346e-07)",-1.44157755,0.2059396500000012,9.67916355,"(8.999999999999999e-08, 0.0, 0.0, 0.0, 8.999999999999999e-08, 0.0, 0.0, 0.0, 8.999999999999999e-08)"
2025/07/05/17:44:34.162139,7458,1751712274,159726912,base_link,0.023058070078693486,-0.06575288331358085,-0.47471991982287887,-0.8773744248971223,"(1.0, 0.0, 0.0, 0.0, 1.0, 0.0, 0.0, 0.0, 1.0)",-0.0431305430829525,0.0042646550573408595,-0.0063009774312376985,"(1.2184696791468346e-07, 0.0, 0.0, 0.0, 1.2184696791468346e-07, 0.0, 0.0, 0.0, 1.2184696791468346e-07)",-1.44157755,0.2157463000000012,9.6889702,"(8.999999999999999e-08, 0.0, 0.0, 0.0, 8.999999999999999e-08, 0.0, 0.0, 0.0, 8.999999999999999e-08)"
2025/07/05/17:44:34.242111,7459,1751712274,239726912,base_link,0.025359228327489054,-0.06439545240429487,-0.47466107570772753,-0.8774434445913102,"(1.0, 0.0, 0.0, 0.0, 1.0, 0.0, 0.0, 0.0, 1.0)",-0.0681605339050293,-0.0010590611491352333,-0.010327816009521484,"(1.2184696791468346e-07, 0.0, 0.0, 0.0, 1.2184696791468346e-07, 0.0, 0.0, 0.0, 1.2184696791468346e-07)",-1.44157755,0.2059396500000012,9.6693569,"(8.999999999999999e-08, 0.0, 0.0, 0.0, 8.999999999999999e-08, 0.0, 0.0, 0.0, 8.999999999999999e-08)"
2025/07/05/17:44:34.342057,7460,1751712274,339731776,base_link,0.02617578112021107,-0.06361659506841277,-0.4748234130118258,-0.8773884451999864,"(1.0, 0.0, 0.0, 0.0, 1.0, 0.0, 0.0, 0.0, 1.0)",-0.028648391366004944,-0.005787612870335579,-0.0026130015030503264,"(1.2184696791468346e-07, 0.0, 0.0, 0.0, 1.2184696791468346e-07, 0.0, 0.0, 0.0, 1.2184696791468346e-07)",-1.42196425,0.1470997500000012,9.639936950000001,"(8.999999999999999e-08, 0.0, 0.0, 0.0, 8.999999999999999e-08, 0.0, 0.0, 0.0, 8.999999999999999e-08)"
2025/07/05/17:44:34.503773,7461,1751712274,500744832,base_link,0.02269983097964932,-0.06547226007226588,-0.4756337755090228,-0.8769096945692627,"(1.0, 0.0, 0.0, 0.0, 1.0, 0.0, 0.0, 0.0, 1.0)",0.057813309133052826,0.0010902644135057944,0.014155486598610878,"(1.2184696791468346e-07, 0.0, 0.0, 0.0, 1.2184696791468346e-07, 0.0, 0.0, 0.0, 1.2184696791468346e-07)",-1.42196425,0.10787315000000117,9.60071035,"(8.999999999999999e-08, 0.0, 0.0, 0.0, 8.999999999999999e-08, 0.0, 0.0, 0.0, 8.999999999999999e-08)"
2025/07/05/17:44:34.625746,7462,1751712274,623751232,base_link,0.022219035814210905,-0.06628003135295699,-0.476088937480764,-0.8766142797717676,"(1.0, 0.0, 0.0, 0.0, 1.0, 0.0, 0.0, 0.0, 1.0)",0.014164416119456291,0.008530076593160631,0.007264366373419761,"(1.2184696791468346e-07, 0.0, 0.0, 0.0, 1.2184696791468346e-07, 0.0, 0.0, 0.0, 1.2184696791468346e-07)",-1.44157755,0.1372931000000012,9.6889702,"(8.999999999999999e-08, 0.0, 0.0, 0.0, 8.999999999999999e-08, 0.0, 0.0, 0.0, 8.999999999999999e-08)"
2025/07/05/17:44:34.723214,7463,1751712274,720757376,base_link,0.02440590405506459,-0.06534050953157094,-0.47614377952504106,-0.8765968690800914,"(1.0, 0.0, 0.0, 0.0, 1.0, 0.0, 0.0, 0.0, 1.0)",-0.04499111324548721,0.005004942882806062,-0.004956766031682492,"(1.2184696791468346e-07, 0.0, 0.0, 0.0, 1.2184696791468346e-07, 0.0, 0.0, 0.0, 1.2184696791468346e-07)",-1.44157755,0.2157463000000012,9.69877685,"(8.999999999999999e-08, 0.0, 0.0, 0.0, 8.999999999999999e-08, 0.0, 0.0, 0.0, 8.999999999999999e-08)"
2025/07/05/17:44:34.841916,7464,1751712274,839763520,base_link,0.026165856953468694,-0.06399132329110159,-0.47629602153606215,-0.876562923207606,"(1.0, 0.0, 0.0, 0.0, 1.0, 0.0, 0.0, 0.0, 1.0)",-0.0387059785425663,-0.0062141353264451036,-0.003561158897355198,"(1.2184696791468346e-07, 0.0, 0.0, 0.0, 1.2184696791468346e-07, 0.0, 0.0, 0.0, 1.2184696791468346e-07)",-1.44157755,0.1863263500000012,9.65955025,"(8.999999999999999e-08, 0.0, 0.0, 0.0, 8.999999999999999e-08, 0.0, 0.0, 0.0, 8.999999999999999e-08)"
2025/07/05/17:44:34.922847,7465,1751712274,920768896,base_link,0.025073964278509768,-0.06412583251660814,-0.47668628734234897,-0.8763728415344575,"(1.0, 0.0, 0.0, 0.0, 1.0, 0.0, 0.0, 0.0, 1.0)",0.012374510057270527,-0.010389951057732105,0.007029173430055381,"(1.2184696791468346e-07, 0.0, 0.0, 0.0, 1.2184696791468346e-07, 0.0, 0.0, 0.0, 1.2184696791468346e-07)",-1.42196425,0.11767980000000118,9.610517,"(8.999999999999999e-08, 0.0, 0.0, 0.0, 8.999999999999999e-08, 0.0, 0.0, 0.0, 8.999999999999999e-08)"
2025/07/05/17:44:35.025472,7466,1751712275,22774528,base_link,0.022638708214677127,-0.0652340277038988,-0.47741757618566094,-0.875959170549008,"(1.0, 0.0, 0.0, 0.0, 1.0, 0.0, 0.0, 0.0, 1.0)",0.05432586371898651,-0.005170296877622603,0.017497563734650612,"(1.2184696791468346e-07, 0.0, 0.0, 0.0, 1.2184696791468346e-07, 0.0, 0.0, 0.0, 1.2184696791468346e-07)",-1.4121576,0.08825985000000118,9.62032365,"(8.999999999999999e-08, 0.0, 0.0, 0.0, 8.999999999999999e-08, 0.0, 0.0, 0.0, 8.999999999999999e-08)"
2025/07/05/17:44:35.103534,7467,1751712275,100779136,base_link,0.021799172188383186,-0.06588082540979455,-0.4779338993288794,-0.875650444416902,"(1.0, 0.0, 0.0, 0.0, 1.0, 0.0, 0.0, 0.0, 1.0)",0.036308370530605316,0.002582471119239928,0.015361188910901546,"(1.2184696791468346e-07, 0.0, 0.0, 0.0, 1.2184696791468346e-07, 0.0, 0.0, 0.0, 1.2184696791468346e-07)",-1.42196425,0.11767980000000118,9.6693569,"(8.999999999999999e-08, 0.0, 0.0, 0.0, 8.999999999999999e-08, 0.0, 0.0, 0.0, 8.999999999999999e-08)"
2025/07/05/17:44:35.182024,7468,1751712275,179784768,base_link,0.022591236506692827,-0.06583092678439448,-0.4781542409839407,-0.8755138188177718,"(1.0, 0.0, 0.0, 0.0, 1.0, 0.0, 0.0, 0.0, 1.0)",-0.007760828360915184,0.007977832108736038,0.00504616368561983,"(1.2184696791468346e-07, 0.0, 0.0, 0.0, 1.2184696791468346e-07, 0.0, 0.0, 0.0, 1.2184696791468346e-07)",-1.4317709,0.2059396500000012,9.7085835,"(8.999999999999999e-08, 0.0, 0.0, 0.0, 8.999999999999999e-08, 0.0, 0.0, 0.0, 8.999999999999999e-08)"
2025/07/05/17:44:35.262173,7469,1751712275,259784768,base_link,0.024448170647224255,-0.06510552325340568,-0.47813716638747616,-0.8755275026593166,"(1.0, 0.0, 0.0, 0.0, 1.0, 0.0, 0.0, 0.0, 1.0)",-0.04589466005563736,0.00698524247854948,-0.005675699096173049,"(1.2184696791468346e-07, 0.0, 0.0, 0.0, 1.2184696791468346e-07, 0.0, 0.0, 0.0, 1.2184696791468346e-07)",-1.4317709,0.2059396500000012,9.6889702,"(8.999999999999999e-08, 0.0, 0.0, 0.0, 8.999999999999999e-08, 0.0, 0.0, 0.0, 8.999999999999999e-08)"
2025/07/05/17:44:35.361902,7470,1751712275,359788608,base_link,0.02591473410504979,-0.06427444037218136,-0.4782317833558765,-0.8754950509622343,"(1.0, 0.0, 0.0, 0.0, 1.0, 0.0, 0.0, 0.0, 1.0)",-0.038630541414022446,-0.00035528885200619757,-0.004903062712401152,"(1.2184696791468346e-07, 0.0, 0.0, 0.0, 1.2184696791468346e-07, 0.0, 0.0, 0.0, 1.2184696791468346e-07)",-1.4317709,0.1765197000000012,9.65955025,"(8.999999999999999e-08, 0.0, 0.0, 0.0, 8.999999999999999e-08, 0.0, 0.0, 0.0, 8.999999999999999e-08)"
2025/07/05/17:44:35.541629,7471,1751712275,539792960,base_link,0.023343239733959038,-0.0652892434553528,-0.4792170834006533,-0.8749533672286323,"(1.0, 0.0, 0.0, 0.0, 1.0, 0.0, 0.0, 0.0, 1.0)",0.04346663877367973,-0.0034863827750086767,0.014838808216154575,"(1.2184696791468346e-07, 0.0, 0.0, 0.0, 1.2184696791468346e-07, 0.0, 0.0, 0.0, 1.2184696791468346e-07)",-1.42196425,0.11767980000000117,9.60071035,"(8.999999999999999e-08, 0.0, 0.0, 0.0, 8.999999999999999e-08, 0.0, 0.0, 0.0, 8.999999999999999e-08)"
2025/07/05/17:44:35.642140,7472,1751712275,639797312,base_link,0.02277504965543789,-0.06585033513795263,-0.47972074304266854,-0.8746502381923882,"(1.0, 0.0, 0.0, 0.0, 1.0, 0.0, 0.0, 0.0, 1.0)",0.020547106862068176,0.003900245297700168,0.011066891252994537,"(1.2184696791468346e-07, 0.0, 0.0, 0.0, 1.2184696791468346e-07, 0.0, 0.0, 0.0, 1.2184696791468346e-07)",-1.42196425,0.1274864500000012,9.65955025,"(8.999999999999999e-08, 0.0, 0.0, 0.0, 8.999999999999999e-08, 0.0, 0.0, 0.0, 8.999999999999999e-08)"
2025/07/05/17:44:35.742165,7473,1751712275,739802432,base_link,0.024242602238136315,-0.06533127311224388,-0.4797933171091038,-0.8746099095297857,"(1.0, 0.0, 0.0, 0.0, 1.0, 0.0, 0.0, 0.0, 1.0)",-0.027775727212429047,0.005565276835113764,-0.0026921292301267394,"(1.2184696791468346e-07, 0.0, 0.0, 0.0, 1.2184696791468346e-07, 0.0, 0.0, 0.0, 1.2184696791468346e-07)",-1.42196425,0.2157463000000012,9.69877685,"(8.999999999999999e-08, 0.0, 0.0, 0.0, 8.999999999999999e-08, 0.0, 0.0, 0.0, 8.999999999999999e-08)"
2025/07/05/17:44:35.841918,7474,1751712275,839807040,base_link,0.025858628816985814,-0.06430992881196487,-0.47979554227232085,-0.8746380977224322,"(1.0, 0.0, 0.0, 0.0, 1.0, 0.0, 0.0, 0.0, 1.0)",-0.040871426463127136,-0.002106491010636092,-0.006828021258115768,"(1.2184696791468346e-07, 0.0, 0.0, 0.0, 1.2184696791468346e-07, 0.0, 0.0, 0.0, 1.2184696791468346e-07)",-1.42196425,0.1765197000000012,9.67916355,"(8.999999999999999e-08, 0.0, 0.0, 0.0, 8.999999999999999e-08, 0.0, 0.0, 0.0, 8.999999999999999e-08)"
2025/07/05/17:44:35.941887,7475,1751712275,939810624,base_link,0.02528546268037833,-0.06413079628985464,-0.4802670526862993,-0.8744091973717362,"(1.0, 0.0, 0.0, 0.0, 1.0, 0.0, 0.0, 0.0, 1.0)",0.0024473508819937706,-0.008635262958705425,0.006276875268667937,"(1.2184696791468346e-07, 0.0, 0.0, 0.0, 1.2184696791468346e-07, 0.0, 0.0, 0.0, 1.2184696791468346e-07)",-1.4121576,0.1470997500000012,9.62032365,"(8.999999999999999e-08, 0.0, 0.0, 0.0, 8.999999999999999e-08, 0.0, 0.0, 0.0, 8.999999999999999e-08)"
2025/07/05/17:44:36.041821,7476,1751712276,39810624,base_link,0.02326496954247654,-0.06509325739261775,-0.4811814489781066,-0.8738913102860881,"(1.0, 0.0, 0.0, 0.0, 1.0, 0.0, 0.0, 0.0, 1.0)",0.044011201709508896,-0.0042579043656587575,0.020970676094293594,"(1.2184696791468346e-07, 0.0, 0.0, 0.0, 1.2184696791468346e-07, 0.0, 0.0, 0.0, 1.2184696791468346e-07)",-1.4121576,0.10787315000000118,9.639936950000001,"(8.999999999999999e-08, 0.0, 0.0, 0.0, 8.999999999999999e-08, 0.0, 0.0, 0.0, 8.999999999999999e-08)"
2025/07/05/17:44:36.141980,7477,1751712276,139815488,base_link,0.02248373244708324,-0.06595171743765339,-0.4820134631913995,-0.8733887302023682,"(1.0, 0.0, 0.0, 0.0, 1.0, 0.0, 0.0, 0.0, 1.0)",0.02683393657207489,0.007079043891280892,0.019417088478803635,"(1.2184696791468346e-07, 0.0, 0.0, 0.0, 1.2184696791468346e-07, 0.0, 0.0, 0.0, 1.2184696791468346e-07)",-1.4121576,0.11767980000000118,9.6693569,"(8.999999999999999e-08, 0.0, 0.0, 0.0, 8.999999999999999e-08, 0.0, 0.0, 0.0, 8.999999999999999e-08)"
2025/07/05/17:44:36.242187,7478,1751712276,239819840,base_link,0.024083379158811768,-0.0657087375840087,-0.4822437764990475,-0.8732372487940179,"(1.0, 0.0, 0.0, 0.0, 1.0, 0.0, 0.0, 0.0, 1.0)",-0.026065882295370102,0.011667932383716106,0.002252050908282398,"(1.2184696791468346e-07, 0.0, 0.0, 0.0, 1.2184696791468346e-07, 0.0, 0.0, 0.0, 1.2184696791468346e-07)",-1.4121576,0.2059396500000012,9.71839015,"(8.999999999999999e-08, 0.0, 0.0, 0.0, 8.999999999999999e-08, 0.0, 0.0, 0.0, 8.999999999999999e-08)"
2025/07/05/17:44:36.341634,7479,1751712276,339824704,base_link,0.026296411707466053,-0.06458729780770361,-0.4821677928721788,-0.8732990319529628,"(1.0, 0.0, 0.0, 0.0, 1.0, 0.0, 0.0, 0.0, 1.0)",-0.051182109862565994,0.0032688535284250966,-0.00880054384469986,"(1.2184696791468346e-07, 0.0, 0.0, 0.0, 1.2184696791468346e-07, 0.0, 0.0, 0.0, 1.2184696791468346e-07)",-1.4317709,0.1961330000000012,9.6693569,"(8.999999999999999e-08, 0.0, 0.0, 0.0, 8.999999999999999e-08, 0.0, 0.0, 0.0, 8.999999999999999e-08)"
2025/07/05/17:44:36.502856,7480,1751712276,500834432,base_link,0.02579184514091581,-0.0641138471167558,-0.48283936622521917,-0.8729778586856283,"(1.0, 0.0, 0.0, 0.0, 1.0, 0.0, 0.0, 0.0, 1.0)",0.013627715408802032,-0.00976792350411415,0.010077419690787794,"(1.2184696791468346e-07, 0.0, 0.0, 0.0, 1.2184696791468346e-07, 0.0, 0.0, 0.0, 1.2184696791468346e-07)",-1.4121576,0.1470997500000012,9.639936950000001,"(8.999999999999999e-08, 0.0, 0.0, 0.0, 8.999999999999999e-08, 0.0, 0.0, 0.0, 8.999999999999999e-08)"
2025/07/05/17:44:36.624958,7481,1751712276,623840064,base_link,0.02409811701688101,-0.06492375092028316,-0.48381022374288085,-0.8724287103967552,"(1.0, 0.0, 0.0, 0.0, 1.0, 0.0, 0.0, 0.0, 1.0)",0.03263925015926361,-0.0018324812408536649,0.018818745389580727,"(1.2184696791468346e-07, 0.0, 0.0, 0.0, 1.2184696791468346e-07, 0.0, 0.0, 0.0, 1.2184696791468346e-07)",-1.40235095,0.09806650000000118,9.639936950000001,"(8.999999999999999e-08, 0.0, 0.0, 0.0, 8.999999999999999e-08, 0.0, 0.0, 0.0, 8.999999999999999e-08)"
2025/07/05/17:44:36.702646,7482,1751712276,700845696,base_link,0.02400724892476495,-0.06526286734359449,-0.484208039190516,-0.8721851781178309,"(1.0, 0.0, 0.0, 0.0, 1.0, 0.0, 0.0, 0.0, 1.0)",0.011592925526201725,0.00530432350933552,0.01190793514251709,"(1.2184696791468346e-07, 0.0, 0.0, 0.0, 1.2184696791468346e-07, 0.0, 0.0, 0.0, 1.2184696791468346e-07)",-1.4121576,0.1372931000000012,9.6889702,"(8.999999999999999e-08, 0.0, 0.0, 0.0, 8.999999999999999e-08, 0.0, 0.0, 0.0, 8.999999999999999e-08)"
2025/07/05/17:44:36.803679,7483,1751712276,801850048,base_link,0.0248015008718665,-0.06518555033690529,-0.48433779343897004,-0.872096686972521,"(1.0, 0.0, 0.0, 0.0, 1.0, 0.0, 0.0, 0.0, 1.0)",-0.014473184011876583,0.006813126150518656,-0.0003596362366806724,"(1.2184696791468346e-07, 0.0, 0.0, 0.0, 1.2184696791468346e-07, 0.0, 0.0, 0.0, 1.2184696791468346e-07)",-1.42196425,0.2059396500000012,9.6889702,"(8.999999999999999e-08, 0.0, 0.0, 0.0, 8.999999999999999e-08, 0.0, 0.0, 0.0, 8.999999999999999e-08)"
2025/07/05/17:44:36.902845,7484,1751712276,900850048,base_link,0.025036487864013093,-0.06494682045846911,-0.4845377247726111,-0.871996719064901,"(1.0, 0.0, 0.0, 0.0, 1.0, 0.0, 0.0, 0.0, 1.0)",-0.009655090048909187,-0.00140321534126997,0.0001293325767619537,"(1.2184696791468346e-07, 0.0, 0.0, 0.0, 1.2184696791468346e-07, 0.0, 0.0, 0.0, 1.2184696791468346e-07)",-1.40235095,0.1667130500000012,9.67916355,"(8.999999999999999e-08, 0.0, 0.0, 0.0, 8.999999999999999e-08, 0.0, 0.0, 0.0, 8.999999999999999e-08)"
2025/07/05/17:44:37.025471,7485,1751712277,22854400,base_link,0.023982303837140354,-0.06522644888738308,-0.4852870851074974,-0.8715886670305399,"(1.0, 0.0, 0.0, 0.0, 1.0, 0.0, 0.0, 0.0, 1.0)",0.01786556839942932,-0.005406213924288748,0.013042321428656578,"(1.2184696791468346e-07, 0.0, 0.0, 0.0, 1.2184696791468346e-07, 0.0, 0.0, 0.0, 1.2184696791468346e-07)",-1.40235095,0.1372931000000012,9.6301303,"(8.999999999999999e-08, 0.0, 0.0, 0.0, 8.999999999999999e-08, 0.0, 0.0, 0.0, 8.999999999999999e-08)"
2025/07/05/17:44:37.123028,7486,1751712277,120858752,base_link,0.023670861680637447,-0.06541495279905363,-0.48601272035184595,-0.8711786326086011,"(1.0, 0.0, 0.0, 0.0, 1.0, 0.0, 0.0, 0.0, 1.0)",0.01001956406980753,-0.0004650668706744891,0.01518223062157631,"(1.2184696791468346e-07, 0.0, 0.0, 0.0, 1.2184696791468346e-07, 0.0, 0.0, 0.0, 1.2184696791468346e-07)",-1.4121576,0.1372931000000012,9.6497436,"(8.999999999999999e-08, 0.0, 0.0, 0.0, 8.999999999999999e-08, 0.0, 0.0, 0.0, 8.999999999999999e-08)"
2025/07/05/17:44:37.225712,7487,1751712277,223862592,base_link,0.025011453384032153,-0.0650061541531683,-0.48636140269555095,-0.8709771599128467,"(1.0, 0.0, 0.0, 0.0, 1.0, 0.0, 0.0, 0.0, 1.0)",-0.02505507320165634,0.005468779243528844,0.004745912738144397,"(1.2184696791468346e-07, 0.0, 0.0, 0.0, 1.2184696791468346e-07, 0.0, 0.0, 0.0, 1.2184696791468346e-07)",-1.3925443,0.1765197000000012,9.7085835,"(8.999999999999999e-08, 0.0, 0.0, 0.0, 8.999999999999999e-08, 0.0, 0.0, 0.0, 8.999999999999999e-08)"
2025/07/05/17:44:37.302442,7488,1751712277,300867712,base_link,0.026573660108041082,-0.0643472710458511,-0.486396759930712,-0.8709600801565587,"(1.0, 0.0, 0.0, 0.0, 1.0, 0.0, 0.0, 0.0, 1.0)",-0.041364483535289764,0.005243310704827308,-0.0038805636577308182,"(1.2184696791468346e-07, 0.0, 0.0, 0.0, 1.2184696791468346e-07, 0.0, 0.0, 0.0, 1.2184696791468346e-07)",-1.4121576,0.1863263500000012,9.69877685,"(8.999999999999999e-08, 0.0, 0.0, 0.0, 8.999999999999999e-08, 0.0, 0.0, 0.0, 8.999999999999999e-08)"
2025/07/05/17:44:37.403779,7489,1751712277,401872576,base_link,0.027283658487713008,-0.06395424419946215,-0.4865220552253223,-0.8708970928919959,"(1.0, 0.0, 0.0, 0.0, 1.0, 0.0, 0.0, 0.0, 1.0)",-0.020421795547008514,0.0002480861730873582,-0.002286431845277548,"(1.2184696791468346e-07, 0.0, 0.0, 0.0, 1.2184696791468346e-07, 0.0, 0.0, 0.0, 1.2184696791468346e-07)",-1.40235095,0.1372931000000012,9.639936950000001,"(8.999999999999999e-08, 0.0, 0.0, 0.0, 8.999999999999999e-08, 0.0, 0.0, 0.0, 8.999999999999999e-08)"
2025/07/05/17:44:37.561795,7490,1751712277,559879744,base_link,0.024868944378307774,-0.06512478477290487,-0.4874620666056886,-0.8703568415508105,"(1.0, 0.0, 0.0, 0.0, 1.0, 0.0, 0.0, 0.0, 1.0)",0.04065902531147003,-0.001637191977351902,0.015577557496726513,"(1.2184696791468346e-07, 0.0, 0.0, 0.0, 1.2184696791468346e-07, 0.0, 0.0, 0.0, 1.2184696791468346e-07)",-1.40235095,0.11767980000000118,9.6301303,"(8.999999999999999e-08, 0.0, 0.0, 0.0, 8.999999999999999e-08, 0.0, 0.0, 0.0, 8.999999999999999e-08)"
2025/07/05/17:44:37.641986,7491,1751712277,639879744,base_link,0.023999037178357167,-0.06568309500522379,-0.48802660563040356,-0.8700228786887807,"(1.0, 0.0, 0.0, 0.0, 1.0, 0.0, 0.0, 0.0, 1.0)",0.03194531053304672,0.0008792390581220409,0.016568368300795555,"(1.2184696791468346e-07, 0.0, 0.0, 0.0, 1.2184696791468346e-07, 0.0, 0.0, 0.0, 1.2184696791468346e-07)",-1.3925443,0.1470997500000012,9.65955025,"(8.999999999999999e-08, 0.0, 0.0, 0.0, 8.999999999999999e-08, 0.0, 0.0, 0.0, 8.999999999999999e-08)"
2025/07/05/17:44:37.742238,7492,1751712277,739884096,base_link,0.024401225286792397,-0.06556314212179344,-0.48850016831364673,-0.8697549310910283,"(1.0, 0.0, 0.0, 0.0, 1.0, 0.0, 0.0, 0.0, 1.0)",-0.005398663692176342,0.0018460151040926587,0.00844083447009325,"(1.2184696791468346e-07, 0.0, 0.0, 0.0, 1.2184696791468346e-07, 0.0, 0.0, 0.0, 1.2184696791468346e-07)",-1.40235095,0.1863263500000012,9.67916355,"(8.999999999999999e-08, 0.0, 0.0, 0.0, 8.999999999999999e-08, 0.0, 0.0, 0.0, 8.999999999999999e-08)"
2025/07/05/17:44:37.842013,7493,1751712277,839888448,base_link,0.025482514956641385,-0.06478324036142348,-0.48879428709552564,-0.869617110056222,"(1.0, 0.0, 0.0, 0.0, 1.0, 0.0, 0.0, 0.0, 1.0)",-0.02731700986623764,-0.0023811121936887503,0.0017508235760033133,"(1.2184696791468346e-07, 0.0, 0.0, 0.0, 1.2184696791468346e-07, 0.0, 0.0, 0.0, 1.2184696791468346e-07)",-1.4121576,0.1863263500000012,9.65955025,"(8.999999999999999e-08, 0.0, 0.0, 0.0, 8.999999999999999e-08, 0.0, 0.0, 0.0, 8.999999999999999e-08)"
2025/07/05/17:44:37.963228,7494,1751712277,960898432,base_link,0.025434765901158764,-0.06438197463712904,-0.48935745466268216,-0.8693315337611066,"(1.0, 0.0, 0.0, 0.0, 1.0, 0.0, 0.0, 0.0, 1.0)",-0.002982783131301403,-0.00629122694954276,0.007581176701933146,"(1.2184696791468346e-07, 0.0, 0.0, 0.0, 1.2184696791468346e-07, 0.0, 0.0, 0.0, 1.2184696791468346e-07)",-1.3925443,0.1372931000000012,9.6497436,"(8.999999999999999e-08, 0.0, 0.0, 0.0, 8.999999999999999e-08, 0.0, 0.0, 0.0, 8.999999999999999e-08)"
2025/07/05/17:44:38.061625,7495,1751712278,59898432,base_link,0.024699809581256713,-0.06476829723071453,-0.4900393547473031,-0.8689398240841135,"(1.0, 0.0, 0.0, 0.0, 1.0, 0.0, 0.0, 0.0, 1.0)",0.01636562868952751,-0.0016835737042129022,0.01427482534199953,"(1.2184696791468346e-07, 0.0, 0.0, 0.0, 1.2184696791468346e-07, 0.0, 0.0, 0.0, 1.2184696791468346e-07)",-1.40235095,0.11767980000000118,9.65955025,"(8.999999999999999e-08, 0.0, 0.0, 0.0, 8.999999999999999e-08, 0.0, 0.0, 0.0, 8.999999999999999e-08)"
2025/07/05/17:44:38.161852,7496,1751712278,159902528,base_link,0.024943838524212725,-0.06496028203902432,-0.49070130263360706,-0.8685448740685592,"(1.0, 0.0, 0.0, 0.0, 1.0, 0.0, 0.0, 0.0, 1.0)",0.0008103232830762863,0.005768611095845701,0.013356411829590797,"(1.2184696791468346e-07, 0.0, 0.0, 0.0, 1.2184696791468346e-07, 0.0, 0.0, 0.0, 1.2184696791468346e-07)",-1.3925443,0.1470997500000012,9.6693569,"(8.999999999999999e-08, 0.0, 0.0, 0.0, 8.999999999999999e-08, 0.0, 0.0, 0.0, 8.999999999999999e-08)"
