time,.header.seq,.header.stamp.secs,.header.stamp.nsecs,.header.frame_id,.orientation.x,.orientation.y,.orientation.z,.orientation.w,.orientation_covariance,.angular_velocity.x,.angular_velocity.y,.angular_velocity.z,.angular_velocity_covariance,.linear_acceleration.x,.linear_acceleration.y,.linear_acceleration.z,.linear_acceleration_covariance
2025/07/05/17:49:30.931083,10277,1751712570,940147008,base_link,-0.04823575707955357,-0.048114415479261735,0.5921074568720106,-0.8029738938960663,"(1.0, 0.0, 0.0, 0.0, 1.0, 0.0, 0.0, 0.0, 1.0)",-0.01168871857225895,0.004158601630479106,0.0719638392329216,"(1.2184696791468346e-07, 0.0, 0.0, 0.0, 1.2184696791468346e-07, 0.0, 0.0, 0.0, 1.2184696791468346e-07)",-1.42196425,0.1372931000000012,9.7085835,"(8.999999999999999e-08, 0.0, 0.0, 0.0, 8.999999999999999e-08, 0.0, 0.0, 0.0, 8.999999999999999e-08)"
2025/07/05/17:49:31.031288,10278,1751712571,40147008,base_link,-0.04792660816790173,-0.048700518819793905,0.5891107357865868,-0.8051582705761582,"(1.0, 0.0, 0.0, 0.0, 1.0, 0.0, 0.0, 0.0, 1.0)",-0.016771523281931877,0.00599764473736287,0.071419857442379,"(1.2184696791468346e-07, 0.0, 0.0, 0.0, 1.2184696791468346e-07, 0.0, 0.0, 0.0, 1.2184696791468346e-07)",-1.4121576,0.1470997500000012,9.6693569,"(8.999999999999999e-08, 0.0, 0.0, 0.0, 8.999999999999999e-08, 0.0, 0.0, 0.0, 8.999999999999999e-08)"
2025/07/05/17:49:31.131284,10279,1751712571,140147008,base_link,-0.04779821521778762,-0.04901976778235104,0.5862093889863232,-0.8072613859542892,"(1.0, 0.0, 0.0, 0.0, 1.0, 0.0, 0.0, 0.0, 1.0)",-0.011379501782357693,0.0035487073473632422,0.06960573047399521,"(1.2184696791468346e-07, 0.0, 0.0, 0.0, 1.2184696791468346e-07, 0.0, 0.0, 0.0, 1.2184696791468346e-07)",-1.4121576,0.1470997500000012,9.639936950000001,"(8.999999999999999e-08, 0.0, 0.0, 0.0, 8.999999999999999e-08, 0.0, 0.0, 0.0, 8.999999999999999e-08)"
2025/07/05/17:49:31.233820,10280,1751712571,243147008,base_link,-0.04797162526702975,-0.04890045322150972,0.5831831089592963,-0.8094472992533485,"(1.0, 0.0, 0.0, 0.0, 1.0, 0.0, 0.0, 0.0, 1.0)",-0.0006538545712828636,0.00040591601282359053,0.07207375764846802,"(1.2184696791468346e-07, 0.0, 0.0, 0.0, 1.2184696791468346e-07, 0.0, 0.0, 0.0, 1.2184696791468346e-07)",-1.42196425,0.1569064000000012,9.639936950000001,"(8.999999999999999e-08, 0.0, 0.0, 0.0, 8.999999999999999e-08, 0.0, 0.0, 0.0, 8.999999999999999e-08)"
2025/07/05/17:49:31.331750,10281,1751712571,340147008,base_link,-0.04831761287523649,-0.04855840252214796,0.5800550839535223,-0.8116918069133187,"(1.0, 0.0, 0.0, 0.0, 1.0, 0.0, 0.0, 0.0, 1.0)",0.004426470957696438,-0.001195227727293959,0.07524549961090088,"(1.2184696791468346e-07, 0.0, 0.0, 0.0, 1.2184696791468346e-07, 0.0, 0.0, 0.0, 1.2184696791468346e-07)",-1.4121576,0.1569064000000012,9.639936950000001,"(8.999999999999999e-08, 0.0, 0.0, 0.0, 8.999999999999999e-08, 0.0, 0.0, 0.0, 8.999999999999999e-08)"
2025/07/05/17:49:31.492816,10282,1751712571,501147008,base_link,-0.04795216084644746,-0.04859245589212354,0.5750825707246042,-0.815241927497175,"(1.0, 0.0, 0.0, 0.0, 1.0, 0.0, 0.0, 0.0, 1.0)",-0.012638567946851254,-0.0015185619704425246,0.07295415550470352,"(1.2184696791468346e-07, 0.0, 0.0, 0.0, 1.2184696791468346e-07, 0.0, 0.0, 0.0, 1.2184696791468346e-07)",-1.42196425,0.1569064000000012,9.69877685,"(8.999999999999999e-08, 0.0, 0.0, 0.0, 8.999999999999999e-08, 0.0, 0.0, 0.0, 8.999999999999999e-08)"
2025/07/05/17:49:31.591888,10283,1751712571,601147008,base_link,-0.04700435614066085,-0.04932608644817494,0.5720905256077764,-0.81735546625035,"(1.0, 0.0, 0.0, 0.0, 1.0, 0.0, 0.0, 0.0, 1.0)",-0.028365161269903183,0.001211396418511876,0.06918467581272125,"(1.2184696791468346e-07, 0.0, 0.0, 0.0, 1.2184696791468346e-07, 0.0, 0.0, 0.0, 1.2184696791468346e-07)",-1.42196425,0.1667130500000012,9.69877685,"(8.999999999999999e-08, 0.0, 0.0, 0.0, 8.999999999999999e-08, 0.0, 0.0, 0.0, 8.999999999999999e-08)"
2025/07/05/17:49:31.672136,10284,1751712571,680147008,base_link,-0.04623115088131527,-0.05000878532057574,0.5697481995242644,-0.8189925464971026,"(1.0, 0.0, 0.0, 0.0, 1.0, 0.0, 0.0, 0.0, 1.0)",-0.03082231804728508,0.003030325984582313,0.06723479181528091,"(1.2184696791468346e-07, 0.0, 0.0, 0.0, 1.2184696791468346e-07, 0.0, 0.0, 0.0, 1.2184696791468346e-07)",-1.4121576,0.1667130500000012,9.6693569,"(8.999999999999999e-08, 0.0, 0.0, 0.0, 8.999999999999999e-08, 0.0, 0.0, 0.0, 8.999999999999999e-08)"
2025/07/05/17:49:31.751886,10285,1751712571,760147008,base_link,-0.045891381109925265,-0.05037113908592927,0.5673652361415086,-0.8206420768551292,"(1.0, 0.0, 0.0, 0.0, 1.0, 0.0, 0.0, 0.0, 1.0)",-0.020271647721529007,0.002679647179320463,0.06858322769403458,"(1.2184696791468346e-07, 0.0, 0.0, 0.0, 1.2184696791468346e-07, 0.0, 0.0, 0.0, 1.2184696791468346e-07)",-1.4121576,0.1765197000000012,9.639936950000001,"(8.999999999999999e-08, 0.0, 0.0, 0.0, 8.999999999999999e-08, 0.0, 0.0, 0.0, 8.999999999999999e-08)"
2025/07/05/17:49:31.851061,10286,1751712571,860147008,base_link,-0.04619920729495192,-0.05021395541483757,0.564323429580184,-0.8227291527311852,"(1.0, 0.0, 0.0, 0.0, 1.0, 0.0, 0.0, 0.0, 1.0)",0.0013195015490055084,0.00037874537520111485,0.07163453847169876,"(1.2184696791468346e-07, 0.0, 0.0, 0.0, 1.2184696791468346e-07, 0.0, 0.0, 0.0, 1.2184696791468346e-07)",-1.4121576,0.1569064000000012,9.6301303,"(8.999999999999999e-08, 0.0, 0.0, 0.0, 8.999999999999999e-08, 0.0, 0.0, 0.0, 8.999999999999999e-08)"
2025/07/05/17:49:31.972106,10287,1751712571,980147008,base_link,-0.04698306002069436,-0.04971589449582303,0.5607065105456895,-0.8251843011941322,"(1.0, 0.0, 0.0, 0.0, 1.0, 0.0, 0.0, 0.0, 1.0)",0.013025334104895592,3.0621886253365695e-05,0.07152236998081207,"(1.2184696791468346e-07, 0.0, 0.0, 0.0, 1.2184696791468346e-07, 0.0, 0.0, 0.0, 1.2184696791468346e-07)",-1.4121576,0.1470997500000012,9.65955025,"(8.999999999999999e-08, 0.0, 0.0, 0.0, 8.999999999999999e-08, 0.0, 0.0, 0.0, 8.999999999999999e-08)"
2025/07/05/17:49:32.051058,10288,1751712572,60147008,base_link,-0.0471896750675959,-0.04973713016485663,0.558379919467595,-0.8267473725300496,"(1.0, 0.0, 0.0, 0.0, 1.0, 0.0, 0.0, 0.0, 1.0)",0.004032772034406662,0.0018787937005981888,0.06861516833305359,"(1.2184696791468346e-07, 0.0, 0.0, 0.0, 1.2184696791468346e-07, 0.0, 0.0, 0.0, 1.2184696791468346e-07)",-1.4317709,0.1569064000000012,9.69877685,"(8.999999999999999e-08, 0.0, 0.0, 0.0, 8.999999999999999e-08, 0.0, 0.0, 0.0, 8.999999999999999e-08)"
2025/07/05/17:49:32.150688,10289,1751712572,160147008,base_link,-0.04677124947667585,-0.05022824318772214,0.555601681504972,-0.8286110941313258,"(1.0, 0.0, 0.0, 0.0, 1.0, 0.0, 0.0, 0.0, 1.0)",-0.015044129453599453,0.0031160467769950706,0.0635630339384079,"(1.2184696791468346e-07, 0.0, 0.0, 0.0, 1.2184696791468346e-07, 0.0, 0.0, 0.0, 1.2184696791468346e-07)",-1.42196425,0.1667130500000012,9.67916355,"(8.999999999999999e-08, 0.0, 0.0, 0.0, 8.999999999999999e-08, 0.0, 0.0, 0.0, 8.999999999999999e-08)"
2025/07/05/17:49:32.251718,10290,1751712572,260147008,base_link,-0.046003093401239856,-0.050848272779650115,0.5529343741030172,-0.830398546776274,"(1.0, 0.0, 0.0, 0.0, 1.0, 0.0, 0.0, 0.0, 1.0)",-0.02459152415394783,0.001364382449537523,0.06020546332001686,"(1.2184696791468346e-07, 0.0, 0.0, 0.0, 1.2184696791468346e-07, 0.0, 0.0, 0.0, 1.2184696791468346e-07)",-1.4121576,0.1667130500000012,9.65955025,"(8.999999999999999e-08, 0.0, 0.0, 0.0, 8.999999999999999e-08, 0.0, 0.0, 0.0, 8.999999999999999e-08)"
2025/07/05/17:49:32.350503,10291,1751712572,360147008,base_link,-0.04535489285384895,-0.05123812478124834,0.5502444670166687,-0.8321950581328028,"(1.0, 0.0, 0.0, 0.0, 1.0, 0.0, 0.0, 0.0, 1.0)",-0.020479358732700348,-0.0018847268074750827,0.0604415163397789,"(1.2184696791468346e-07, 0.0, 0.0, 0.0, 1.2184696791468346e-07, 0.0, 0.0, 0.0, 1.2184696791468346e-07)",-1.4121576,0.1667130500000012,9.6497436,"(8.999999999999999e-08, 0.0, 0.0, 0.0, 8.999999999999999e-08, 0.0, 0.0, 0.0, 8.999999999999999e-08)"
2025/07/05/17:49:32.513042,10292,1751712572,521147008,base_link,-0.04519883876233255,-0.051309548568896315,0.5459265651688814,-0.8350380713734553,"(1.0, 0.0, 0.0, 0.0, 1.0, 0.0, 0.0, 0.0, 1.0)",-0.0036639440804719925,-0.001106626354157917,0.06139814481139183,"(1.2184696791468346e-07, 0.0, 0.0, 0.0, 1.2184696791468346e-07, 0.0, 0.0, 0.0, 1.2184696791468346e-07)",-1.40235095,0.1569064000000012,9.65955025,"(8.999999999999999e-08, 0.0, 0.0, 0.0, 8.999999999999999e-08, 0.0, 0.0, 0.0, 8.999999999999999e-08)"
2025/07/05/17:49:32.633363,10293,1751712572,643147008,base_link,-0.04555658377607384,-0.05140421269427996,0.5426836883257963,-0.837124016509528,"(1.0, 0.0, 0.0, 0.0, 1.0, 0.0, 0.0, 0.0, 1.0)",0.0002789301797747612,0.0037052128463983614,0.06201029568910599,"(1.2184696791468346e-07, 0.0, 0.0, 0.0, 1.2184696791468346e-07, 0.0, 0.0, 0.0, 1.2184696791468346e-07)",-1.4317709,0.1372931000000012,9.6889702,"(8.999999999999999e-08, 0.0, 0.0, 0.0, 8.999999999999999e-08, 0.0, 0.0, 0.0, 8.999999999999999e-08)"
2025/07/05/17:49:32.731045,10294,1751712572,740147008,base_link,-0.04565160881063236,-0.05169626234809942,0.5399785777029267,-0.8388483550047422,"(1.0, 0.0, 0.0, 0.0, 1.0, 0.0, 0.0, 0.0, 1.0)",-0.004326709546148777,0.005813966970890768,0.06102733314037323,"(1.2184696791468346e-07, 0.0, 0.0, 0.0, 1.2184696791468346e-07, 0.0, 0.0, 0.0, 1.2184696791468346e-07)",-1.42196425,0.1372931000000012,9.67916355,"(8.999999999999999e-08, 0.0, 0.0, 0.0, 8.999999999999999e-08, 0.0, 0.0, 0.0, 8.999999999999999e-08)"
2025/07/05/17:49:32.834474,10295,1751712572,843147008,base_link,-0.04537227335207892,-0.052029810728552714,0.5373216856454403,-0.8405472394467535,"(1.0, 0.0, 0.0, 0.0, 1.0, 0.0, 0.0, 0.0, 1.0)",-0.011565422639250755,0.002716344548389323,0.05954157933592796,"(1.2184696791468346e-07, 0.0, 0.0, 0.0, 1.2184696791468346e-07, 0.0, 0.0, 0.0, 1.2184696791468346e-07)",-1.40235095,0.1667130500000012,9.639936950000001,"(8.999999999999999e-08, 0.0, 0.0, 0.0, 8.999999999999999e-08, 0.0, 0.0, 0.0, 8.999999999999999e-08)"
2025/07/05/17:49:32.931688,10296,1751712572,940147008,base_link,-0.04481065562269457,-0.052315745255816205,0.5347445445128503,-0.8422014842392151,"(1.0, 0.0, 0.0, 0.0, 1.0, 0.0, 0.0, 0.0, 1.0)",-0.015385294333100319,-0.0017884504050016334,0.057470232248306274,"(1.2184696791468346e-07, 0.0, 0.0, 0.0, 1.2184696791468346e-07, 0.0, 0.0, 0.0, 1.2184696791468346e-07)",-1.4121576,0.1765197000000012,9.6497436,"(8.999999999999999e-08, 0.0, 0.0, 0.0, 8.999999999999999e-08, 0.0, 0.0, 0.0, 8.999999999999999e-08)"
2025/07/05/17:49:33.033606,10297,1751712573,43147008,base_link,-0.044486779088978724,-0.052400337986892746,0.5321531875056789,-0.8438531365662473,"(1.0, 0.0, 0.0, 0.0, 1.0, 0.0, 0.0, 0.0, 1.0)",-0.011086591519415379,-0.003157791215926402,0.05776241049170494,"(1.2184696791468346e-07, 0.0, 0.0, 0.0, 1.2184696791468346e-07, 0.0, 0.0, 0.0, 1.2184696791468346e-07)",-1.42196425,0.1470997500000012,9.6693569,"(8.999999999999999e-08, 0.0, 0.0, 0.0, 8.999999999999999e-08, 0.0, 0.0, 0.0, 8.999999999999999e-08)"
2025/07/05/17:49:33.131468,10298,1751712573,140147008,base_link,-0.04454361655086836,-0.0524154570628735,0.5294980495956507,-0.8455177712856552,"(1.0, 0.0, 0.0, 0.0, 1.0, 0.0, 0.0, 0.0, 1.0)",-0.002214718610048294,-0.0003054703120142148,0.059592343866825104,"(1.2184696791468346e-07, 0.0, 0.0, 0.0, 1.2184696791468346e-07, 0.0, 0.0, 0.0, 1.2184696791468346e-07)",-1.42196425,0.11767980000000118,9.6889702,"(8.999999999999999e-08, 0.0, 0.0, 0.0, 8.999999999999999e-08, 0.0, 0.0, 0.0, 8.999999999999999e-08)"
2025/07/05/17:49:33.233676,10299,1751712573,243147008,base_link,-0.04469052922621372,-0.05249958763226692,0.5267210116948088,-0.8472375851761536,"(1.0, 0.0, 0.0, 0.0, 1.0, 0.0, 0.0, 0.0, 1.0)",-0.0009242016822099686,0.0028814657125622108,0.06188945472240448,"(1.2184696791468346e-07, 0.0, 0.0, 0.0, 1.2184696791468346e-07, 0.0, 0.0, 0.0, 1.2184696791468346e-07)",-1.42196425,0.1274864500000012,9.67916355,"(8.999999999999999e-08, 0.0, 0.0, 0.0, 8.999999999999999e-08, 0.0, 0.0, 0.0, 8.999999999999999e-08)"
2025/07/05/17:49:33.331305,10300,1751712573,340147008,base_link,-0.044562310001548235,-0.052855596203093345,0.5239800778990829,-0.8489201166436171,"(1.0, 0.0, 0.0, 0.0, 1.0, 0.0, 0.0, 0.0, 1.0)",-0.009489230811595917,0.002703694393858321,0.06140508875250816,"(1.2184696791468346e-07, 0.0, 0.0, 0.0, 1.2184696791468346e-07, 0.0, 0.0, 0.0, 1.2184696791468346e-07)",-1.4121576,0.1667130500000012,9.639936950000001,"(8.999999999999999e-08, 0.0, 0.0, 0.0, 8.999999999999999e-08, 0.0, 0.0, 0.0, 8.999999999999999e-08)"
2025/07/05/17:49:33.492570,10301,1751712573,501147008,base_link,-0.04223012835843667,-0.051944929419719135,0.5188733506655997,-0.8522257837776699,"(1.0, 0.0, 0.0, 0.0, 1.0, 0.0, 0.0, 0.0, 1.0)",-0.026579242199659348,-0.030320189893245687,0.0739666149020195,"(1.2184696791468346e-07, 0.0, 0.0, 0.0, 1.2184696791468346e-07, 0.0, 0.0, 0.0, 1.2184696791468346e-07)",-1.2944778000000001,0.1765197000000012,9.6301303,"(8.999999999999999e-08, 0.0, 0.0, 0.0, 8.999999999999999e-08, 0.0, 0.0, 0.0, 8.999999999999999e-08)"
2025/07/05/17:49:33.592851,10302,1751712573,602147008,base_link,-0.03780360189318414,-0.05314077645602389,0.5128753946066178,-0.8559823451267313,"(1.0, 0.0, 0.0, 0.0, 1.0, 0.0, 0.0, 0.0, 1.0)",-0.09467463940382004,-0.026329793035984022,0.12835828959941864,"(1.2184696791468346e-07, 0.0, 0.0, 0.0, 1.2184696791468346e-07, 0.0, 0.0, 0.0, 1.2184696791468346e-07)",-0.980665,-0.39226599999999884,9.77723005,"(8.999999999999999e-08, 0.0, 0.0, 0.0, 8.999999999999999e-08, 0.0, 0.0, 0.0, 8.999999999999999e-08)"
2025/07/05/17:49:33.671740,10303,1751712573,680147008,base_link,-0.03703587475528694,-0.05354514054922718,0.5075961228364092,-0.8591317931412614,"(1.0, 0.0, 0.0, 0.0, 1.0, 0.0, 0.0, 0.0, 1.0)",-0.051028236746788025,-0.006583207286894304,0.14468997716903687,"(1.2184696791468346e-07, 0.0, 0.0, 0.0, 1.2184696791468346e-07, 0.0, 0.0, 0.0, 1.2184696791468346e-07)",-1.01008495,0.10787315000000121,9.79684335,"(8.999999999999999e-08, 0.0, 0.0, 0.0, 8.999999999999999e-08, 0.0, 0.0, 0.0, 8.999999999999999e-08)"
2025/07/05/17:49:33.771990,10304,1751712573,780147008,base_link,-0.03859203150261953,-0.053552149226141016,0.49992696453384355,-0.8635484077628418,"(1.0, 0.0, 0.0, 0.0, 1.0, 0.0, 0.0, 0.0, 1.0)",0.013052942231297493,0.015020533464849016,0.1706496775150299,"(1.2184696791468346e-07, 0.0, 0.0, 0.0, 1.2184696791468346e-07, 0.0, 0.0, 0.0, 1.2184696791468346e-07)",-1.0198916,-0.04903324999999881,9.73800345,"(8.999999999999999e-08, 0.0, 0.0, 0.0, 8.999999999999999e-08, 0.0, 0.0, 0.0, 8.999999999999999e-08)"
2025/07/05/17:49:33.851333,10305,1751712573,860147008,base_link,-0.04062359719310788,-0.05330828698407524,0.4931624398618608,-0.8673515768126626,"(1.0, 0.0, 0.0, 0.0, 1.0, 0.0, 0.0, 0.0, 1.0)",0.03862486779689789,0.021355116739869142,0.18690012395381927,"(1.2184696791468346e-07, 0.0, 0.0, 0.0, 1.2184696791468346e-07, 0.0, 0.0, 0.0, 1.2184696791468346e-07)",-1.0395049,0.10787315000000118,9.69877685,"(8.999999999999999e-08, 0.0, 0.0, 0.0, 8.999999999999999e-08, 0.0, 0.0, 0.0, 8.999999999999999e-08)"
2025/07/05/17:49:33.951078,10306,1751712573,960147008,base_link,-0.042489869289781504,-0.053059855777852195,0.48456813655065056,-0.8721083555111719,"(1.0, 0.0, 0.0, 0.0, 1.0, 0.0, 0.0, 0.0, 1.0)",0.027703553438186646,0.01518791820853951,0.19402152299880981,"(1.2184696791468346e-07, 0.0, 0.0, 0.0, 1.2184696791468346e-07, 0.0, 0.0, 0.0, 1.2184696791468346e-07)",-1.02969825,0.1274864500000012,9.7085835,"(8.999999999999999e-08, 0.0, 0.0, 0.0, 8.999999999999999e-08, 0.0, 0.0, 0.0, 8.999999999999999e-08)"
2025/07/05/17:49:34.050756,10307,1751712574,60147008,base_link,-0.04276472809640905,-0.05320698088205476,0.47597101499274597,-0.8768077258458848,"(1.0, 0.0, 0.0, 0.0, 1.0, 0.0, 0.0, 0.0, 1.0)",-0.007970428094267845,0.00587024632841351,0.19096413254737854,"(1.2184696791468346e-07, 0.0, 0.0, 0.0, 1.2184696791468346e-07, 0.0, 0.0, 0.0, 1.2184696791468346e-07)",-1.0198916,0.2647795500000012,9.7281968,"(8.999999999999999e-08, 0.0, 0.0, 0.0, 8.999999999999999e-08, 0.0, 0.0, 0.0, 8.999999999999999e-08)"
2025/07/05/17:49:34.151457,10308,1751712574,160147008,base_link,-0.04143654636388776,-0.05412173392821614,0.4671564126817386,-0.8815433832956638,"(1.0, 0.0, 0.0, 0.0, 1.0, 0.0, 0.0, 0.0, 1.0)",-0.04201819747686386,0.0030907534528523918,0.19050933420658112,"(1.2184696791468346e-07, 0.0, 0.0, 0.0, 1.2184696791468346e-07, 0.0, 0.0, 0.0, 1.2184696791468346e-07)",-1.0591182,0.2059396500000012,9.7674234,"(8.999999999999999e-08, 0.0, 0.0, 0.0, 8.999999999999999e-08, 0.0, 0.0, 0.0, 8.999999999999999e-08)"
2025/07/05/17:49:34.251006,10309,1751712574,260147008,base_link,-0.039524506507717605,-0.05535430446542108,0.4579461066941717,-0.8863741183755994,"(1.0, 0.0, 0.0, 0.0, 1.0, 0.0, 0.0, 0.0, 1.0)",-0.06266884505748749,0.004509954247623706,0.19728407263755798,"(1.2184696791468346e-07, 0.0, 0.0, 0.0, 1.2184696791468346e-07, 0.0, 0.0, 0.0, 1.2184696791468346e-07)",-1.0591182,0.1863263500000012,9.73800345,"(8.999999999999999e-08, 0.0, 0.0, 0.0, 8.999999999999999e-08, 0.0, 0.0, 0.0, 8.999999999999999e-08)"
2025/07/05/17:49:34.352174,10310,1751712574,360147008,base_link,-0.037637873459092835,-0.05641749277014766,0.4485001791718263,-0.8912059505377234,"(1.0, 0.0, 0.0, 0.0, 1.0, 0.0, 0.0, 0.0, 1.0)",-0.05577681586146355,0.0018743394175544628,0.20197463035583496,"(1.2184696791468346e-07, 0.0, 0.0, 0.0, 1.2184696791468346e-07, 0.0, 0.0, 0.0, 1.2184696791468346e-07)",-1.06892485,0.2157463000000012,9.7281968,"(8.999999999999999e-08, 0.0, 0.0, 0.0, 8.999999999999999e-08, 0.0, 0.0, 0.0, 8.999999999999999e-08)"
2025/07/05/17:49:34.551927,10311,1751712574,560147008,base_link,-0.03594110353752461,-0.056682657884364766,0.4284406771324014,-0.9010737481194303,"(1.0, 0.0, 0.0, 0.0, 1.0, 0.0, 0.0, 0.0, 1.0)",-0.024503344669938087,-0.005909791216254207,0.2186843305826187,"(1.2184696791468346e-07, 0.0, 0.0, 0.0, 1.2184696791468346e-07, 0.0, 0.0, 0.0, 1.2184696791468346e-07)",-1.08853815,0.1961330000000012,9.6889702,"(8.999999999999999e-08, 0.0, 0.0, 0.0, 8.999999999999999e-08, 0.0, 0.0, 0.0, 8.999999999999999e-08)"
2025/07/05/17:49:34.651125,10312,1751712574,660147008,base_link,-0.0362645077441722,-0.056458469980486245,0.41776288901270586,-0.9060747735199857,"(1.0, 0.0, 0.0, 0.0, 1.0, 0.0, 0.0, 0.0, 1.0)",-0.004284988157451153,-0.002918102312833043,0.22714707255363464,"(1.2184696791468346e-07, 0.0, 0.0, 0.0, 1.2184696791468346e-07, 0.0, 0.0, 0.0, 1.2184696791468346e-07)",-1.1179581,0.1470997500000012,9.7478101,"(8.999999999999999e-08, 0.0, 0.0, 0.0, 8.999999999999999e-08, 0.0, 0.0, 0.0, 8.999999999999999e-08)"
2025/07/05/17:49:34.750826,10313,1751712574,760147008,base_link,-0.036825084194818156,-0.05621335341857581,0.40697025298298245,-0.9109660725067922,"(1.0, 0.0, 0.0, 0.0, 1.0, 0.0, 0.0, 0.0, 1.0)",-0.002254325896501541,0.0027385791763663574,0.23131589591503143,"(1.2184696791468346e-07, 0.0, 0.0, 0.0, 1.2184696791468346e-07, 0.0, 0.0, 0.0, 1.2184696791468346e-07)",-1.10815145,0.2353596000000012,9.7281968,"(8.999999999999999e-08, 0.0, 0.0, 0.0, 8.999999999999999e-08, 0.0, 0.0, 0.0, 8.999999999999999e-08)"
2025/07/05/17:49:34.851495,10314,1751712574,860147008,base_link,-0.03610739492818339,-0.05691305788160327,0.39603335882374663,-0.9157591050996146,"(1.0, 0.0, 0.0, 0.0, 1.0, 0.0, 0.0, 0.0, 1.0)",-0.02764163352549076,0.006643993780016927,0.22824934124946594,"(1.2184696791468346e-07, 0.0, 0.0, 0.0, 1.2184696791468346e-07, 0.0, 0.0, 0.0, 1.2184696791468346e-07)",-1.10815145,0.2647795500000012,9.73800345,"(8.999999999999999e-08, 0.0, 0.0, 0.0, 8.999999999999999e-08, 0.0, 0.0, 0.0, 8.999999999999999e-08)"
2025/07/05/17:49:34.971964,10315,1751712574,980147008,base_link,-0.034007992227819445,-0.05786245127348742,0.3831904238865795,-0.9212277092222527,"(1.0, 0.0, 0.0, 0.0, 1.0, 0.0, 0.0, 0.0, 1.0)",-0.058167606592178345,0.0026219037827104603,0.22152367234230042,"(1.2184696791468346e-07, 0.0, 0.0, 0.0, 1.2184696791468346e-07, 0.0, 0.0, 0.0, 1.2184696791468346e-07)",-1.10815145,0.2647795500000012,9.67916355,"(8.999999999999999e-08, 0.0, 0.0, 0.0, 8.999999999999999e-08, 0.0, 0.0, 0.0, 8.999999999999999e-08)"
2025/07/05/17:49:35.051187,10316,1751712575,60147008,base_link,-0.03298708211675761,-0.058228226147571505,0.3749148087485509,-0.9246405854569477,"(1.0, 0.0, 0.0, 0.0, 1.0, 0.0, 0.0, 0.0, 1.0)",-0.04756183922290802,-0.0009533020202070209,0.21721914410591125,"(1.2184696791468346e-07, 0.0, 0.0, 0.0, 1.2184696791468346e-07, 0.0, 0.0, 0.0, 1.2184696791468346e-07)",-1.1375714000000001,0.2353596000000012,9.7085835,"(8.999999999999999e-08, 0.0, 0.0, 0.0, 8.999999999999999e-08, 0.0, 0.0, 0.0, 8.999999999999999e-08)"
2025/07/05/17:49:35.151155,10317,1751712575,160147008,base_link,-0.03793894301994799,-0.056082017592026606,0.3683823118111983,-0.9272054336822955,"(1.0, 0.0, 0.0, 0.0, 1.0, 0.0, 0.0, 0.0, 1.0)",0.07704520225524902,-0.00033686286769805496,0.15032464265823364,"(1.2184696791468346e-07, 0.0, 0.0, 0.0, 1.2184696791468346e-07, 0.0, 0.0, 0.0, 1.2184696791468346e-07)",-1.04931155,0.6668522000000012,9.71839015,"(8.999999999999999e-08, 0.0, 0.0, 0.0, 8.999999999999999e-08, 0.0, 0.0, 0.0, 8.999999999999999e-08)"
2025/07/05/17:49:35.251089,10318,1751712575,260147008,base_link,-0.04689409340535334,-0.05305421827392341,0.3661104363251653,-0.9278735594577691,"(1.0, 0.0, 0.0, 0.0, 1.0, 0.0, 0.0, 0.0, 1.0)",0.19936609268188477,0.010021824389696128,0.05356692150235176,"(1.2184696791468346e-07, 0.0, 0.0, 0.0, 1.2184696791468346e-07, 0.0, 0.0, 0.0, 1.2184696791468346e-07)",-1.1964113,1.0983448000000013,9.75761675,"(8.999999999999999e-08, 0.0, 0.0, 0.0, 8.999999999999999e-08, 0.0, 0.0, 0.0, 8.999999999999999e-08)"
2025/07/05/17:49:35.331187,10319,1751712575,340147008,base_link,-0.04963954837788055,-0.052153665639605044,0.3660077601731671,-0.9278223051264795,"(1.0, 0.0, 0.0, 0.0, 1.0, 0.0, 0.0, 0.0, 1.0)",0.10337220132350922,0.0059552276507020005,0.008746590465307236,"(1.2184696791468346e-07, 0.0, 0.0, 0.0, 1.2184696791468346e-07, 0.0, 0.0, 0.0, 1.2184696791468346e-07)",-1.1179581,0.5491724000000012,9.6497436,"(8.999999999999999e-08, 0.0, 0.0, 0.0, 8.999999999999999e-08, 0.0, 0.0, 0.0, 8.999999999999999e-08)"
2025/07/05/17:49:35.471736,10320,1751712575,480147008,base_link,-0.05052357373952823,-0.051829501270937293,0.37322904790892164,-0.9249114277008323,"(1.0, 0.0, 0.0, 0.0, 1.0, 0.0, 0.0, 0.0, 1.0)",0.018688414245843887,-0.0015102315228432584,-0.13618947565555573,"(1.2184696791468346e-07, 0.0, 0.0, 0.0, 1.2184696791468346e-07, 0.0, 0.0, 0.0, 1.2184696791468346e-07)",-1.1571847,0.8139519500000013,9.7085835,"(8.999999999999999e-08, 0.0, 0.0, 0.0, 8.999999999999999e-08, 0.0, 0.0, 0.0, 8.999999999999999e-08)"
2025/07/05/17:49:35.592162,10321,1751712575,601147008,base_link,-0.05061128971533503,-0.052346098171756485,0.3861072484657492,-0.919575758728856,"(1.0, 0.0, 0.0, 0.0, 1.0, 0.0, 0.0, 0.0, 1.0)",0.018757067620754242,0.002186054131016105,-0.24843347072601318,"(1.2184696791468346e-07, 0.0, 0.0, 0.0, 1.2184696791468346e-07, 0.0, 0.0, 0.0, 1.2184696791468346e-07)",-1.24544455,0.7943386500000013,9.7085835,"(8.999999999999999e-08, 0.0, 0.0, 0.0, 8.999999999999999e-08, 0.0, 0.0, 0.0, 8.999999999999999e-08)"
2025/07/05/17:49:35.671205,10322,1751712575,680147008,base_link,-0.04816241954199219,-0.05328226063597394,0.39650382773539433,-0.9152191522452763,"(1.0, 0.0, 0.0, 0.0, 1.0, 0.0, 0.0, 0.0, 1.0)",-0.030448351055383682,-0.0043014017865062116,-0.29088595509529114,"(1.2184696791468346e-07, 0.0, 0.0, 0.0, 1.2184696791468346e-07, 0.0, 0.0, 0.0, 1.2184696791468346e-07)",-1.26505785,0.5982056500000011,9.62032365,"(8.999999999999999e-08, 0.0, 0.0, 0.0, 8.999999999999999e-08, 0.0, 0.0, 0.0, 8.999999999999999e-08)"
2025/07/05/17:49:35.751231,10323,1751712575,760147008,base_link,-0.044928021244619074,-0.05414997491573421,0.4077066878529516,-0.9103979952765959,"(1.0, 0.0, 0.0, 0.0, 1.0, 0.0, 0.0, 0.0, 1.0)",-0.060152314603328705,-0.014107462950050869,-0.317559152841568,"(1.2184696791468346e-07, 0.0, 0.0, 0.0, 1.2184696791468346e-07, 0.0, 0.0, 0.0, 1.2184696791468346e-07)",-1.20621795,0.5001391500000012,9.6693569,"(8.999999999999999e-08, 0.0, 0.0, 0.0, 8.999999999999999e-08, 0.0, 0.0, 0.0, 8.999999999999999e-08)"
2025/07/05/17:49:35.850810,10324,1751712575,860147008,base_link,-0.04156868071696561,-0.054379450759499535,0.42214494883913034,-0.9039405745336107,"(1.0, 0.0, 0.0, 0.0, 1.0, 0.0, 0.0, 0.0, 1.0)",-0.04350215196609497,-0.0272973515093327,-0.3308165371417999,"(1.2184696791468346e-07, 0.0, 0.0, 0.0, 1.2184696791468346e-07, 0.0, 0.0, 0.0, 1.2184696791468346e-07)",-1.2160246,0.3040061500000012,9.639936950000001,"(8.999999999999999e-08, 0.0, 0.0, 0.0, 8.999999999999999e-08, 0.0, 0.0, 0.0, 8.999999999999999e-08)"
2025/07/05/17:49:35.971916,10325,1751712575,980147008,base_link,-0.03620478033693386,-0.05586707936807659,0.4351311536244618,-0.8979025350610613,"(1.0, 0.0, 0.0, 0.0, 1.0, 0.0, 0.0, 0.0, 1.0)",-0.07201848924160004,-0.019684474915266068,-0.25404471158981323,"(1.2184696791468346e-07, 0.0, 0.0, 0.0, 1.2184696791468346e-07, 0.0, 0.0, 0.0, 1.2184696791468346e-07)",-1.176798,-0.1078731499999988,9.7478101,"(8.999999999999999e-08, 0.0, 0.0, 0.0, 8.999999999999999e-08, 0.0, 0.0, 0.0, 8.999999999999999e-08)"
2025/07/05/17:49:36.051023,10326,1751712576,60147008,base_link,-0.022687623342460855,-0.06176358705386238,0.43573115260105144,-0.8976685879066226,"(1.0, 0.0, 0.0, 0.0, 1.0, 0.0, 0.0, 0.0, 1.0)",-0.29180148243904114,-0.01413981802761556,-0.09745784103870392,"(1.2184696791468346e-07, 0.0, 0.0, 0.0, 1.2184696791468346e-07, 0.0, 0.0, 0.0, 1.2184696791468346e-07)",-1.18660465,-1.2552511999999987,9.7085835,"(8.999999999999999e-08, 0.0, 0.0, 0.0, 8.999999999999999e-08, 0.0, 0.0, 0.0, 8.999999999999999e-08)"
2025/07/05/17:49:36.130943,10327,1751712576,140147008,base_link,-0.009463258889381904,-0.06824064127573182,0.43119368185069684,-0.8996252944095722,"(1.0, 0.0, 0.0, 0.0, 1.0, 0.0, 0.0, 0.0, 1.0)",-0.40800991654396057,-0.0032104300335049547,0.06841778010129929,"(1.2184696791468346e-07, 0.0, 0.0, 0.0, 1.2184696791468346e-07, 0.0, 0.0, 0.0, 1.2184696791468346e-07)",-1.372931,-0.9316317499999988,9.75761675,"(8.999999999999999e-08, 0.0, 0.0, 0.0, 8.999999999999999e-08, 0.0, 0.0, 0.0, 8.999999999999999e-08)"
2025/07/05/17:49:36.231536,10328,1751712576,240147008,base_link,-0.006766650977125546,-0.07010452081754226,0.42282515004828913,-0.9034702325379284,"(1.0, 0.0, 0.0, 0.0, 1.0, 0.0, 0.0, 0.0, 1.0)",-0.11662119626998901,0.006373083218932173,0.1684972643852234,"(1.2184696791468346e-07, 0.0, 0.0, 0.0, 1.2184696791468346e-07, 0.0, 0.0, 0.0, 1.2184696791468346e-07)",-1.30428445,-0.5295590999999988,9.73800345,"(8.999999999999999e-08, 0.0, 0.0, 0.0, 8.999999999999999e-08, 0.0, 0.0, 0.0, 8.999999999999999e-08)"
2025/07/05/17:49:36.330993,10329,1751712576,340147008,base_link,-0.016591238922215555,-0.06598064588615747,0.4114206261321681,-0.9089028295436681,"(1.0, 0.0, 0.0, 0.0, 1.0, 0.0, 0.0, 0.0, 1.0)",0.18764469027519226,0.0026666719932109425,0.2524932622909546,"(1.2184696791468346e-07, 0.0, 0.0, 0.0, 1.2184696791468346e-07, 0.0, 0.0, 0.0, 1.2184696791468346e-07)",-1.2356379,-0.5589790499999988,9.58109705,"(8.999999999999999e-08, 0.0, 0.0, 0.0, 8.999999999999999e-08, 0.0, 0.0, 0.0, 8.999999999999999e-08)"
2025/07/05/17:49:36.493002,10330,1751712576,501147008,base_link,-0.036357788250841336,-0.056983841318207634,0.38923216341122785,-0.9186562338700717,"(1.0, 0.0, 0.0, 0.0, 1.0, 0.0, 0.0, 0.0, 1.0)",0.24625468254089355,-0.005962583236396274,0.31894102692604065,"(1.2184696791468346e-07, 0.0, 0.0, 0.0, 1.2184696791468346e-07, 0.0, 0.0, 0.0, 1.2184696791468346e-07)",-1.2160246,-0.25497289999999884,9.6497436,"(8.999999999999999e-08, 0.0, 0.0, 0.0, 8.999999999999999e-08, 0.0, 0.0, 0.0, 8.999999999999999e-08)"
2025/07/05/17:49:36.633763,10331,1751712576,643147008,base_link,-0.040249083613745754,-0.054368728718262475,0.3694667412311373,-0.9267784955046472,"(1.0, 0.0, 0.0, 0.0, 1.0, 0.0, 0.0, 0.0, 1.0)",0.023818794637918472,-0.008512344211339914,0.30210041999816895,"(1.2184696791468346e-07, 0.0, 0.0, 0.0, 1.2184696791468346e-07, 0.0, 0.0, 0.0, 1.2184696791468346e-07)",-1.22583125,0.27458620000000117,9.71839015,"(8.999999999999999e-08, 0.0, 0.0, 0.0, 8.999999999999999e-08, 0.0, 0.0, 0.0, 8.999999999999999e-08)"
2025/07/05/17:49:36.711663,10332,1751712576,721147008,base_link,-0.03662745766741233,-0.055582917098463955,0.358548202496986,-0.9311348748477994,"(1.0, 0.0, 0.0, 0.0, 1.0, 0.0, 0.0, 0.0, 1.0)",-0.09635784476995468,-0.00280337617732581,0.28327077627182007,"(1.2184696791468346e-07, 0.0, 0.0, 0.0, 1.2184696791468346e-07, 0.0, 0.0, 0.0, 1.2184696791468346e-07)",-1.24544455,0.43149260000000117,9.73800345,"(8.999999999999999e-08, 0.0, 0.0, 0.0, 8.999999999999999e-08, 0.0, 0.0, 0.0, 8.999999999999999e-08)"
2025/07/05/17:49:36.812158,10333,1751712576,821147008,base_link,-0.029994163169865015,-0.05851730044916901,0.34497184116854646,-0.9363068431474078,"(1.0, 0.0, 0.0, 0.0, 1.0, 0.0, 0.0, 0.0, 1.0)",-0.16637331247329712,0.007929461076855692,0.2723039984703064,"(1.2184696791468346e-07, 0.0, 0.0, 0.0, 1.2184696791468346e-07, 0.0, 0.0, 0.0, 1.2184696791468346e-07)",-1.22583125,0.37265270000000117,9.71839015,"(8.999999999999999e-08, 0.0, 0.0, 0.0, 8.999999999999999e-08, 0.0, 0.0, 0.0, 8.999999999999999e-08)"
2025/07/05/17:49:36.892665,10334,1751712576,901147008,base_link,-0.02596528190684498,-0.06038706818775632,0.3339055238064968,-0.9403118138695771,"(1.0, 0.0, 0.0, 0.0, 1.0, 0.0, 0.0, 0.0, 1.0)",-0.1433967649936676,0.009675348177552256,0.27400216460227966,"(1.2184696791468346e-07, 0.0, 0.0, 0.0, 1.2184696791468346e-07, 0.0, 0.0, 0.0, 1.2184696791468346e-07)",-1.22583125,0.3628460500000012,9.69877685,"(8.999999999999999e-08, 0.0, 0.0, 0.0, 8.999999999999999e-08, 0.0, 0.0, 0.0, 8.999999999999999e-08)"
2025/07/05/17:49:37.012135,10335,1751712577,21147008,base_link,-0.024764017588469564,-0.061056895530709,0.3165074185099091,-0.9462990293608163,"(1.0, 0.0, 0.0, 0.0, 1.0, 0.0, 0.0, 0.0, 1.0)",-0.03826688602566719,0.003475714474916494,0.2954736053943634,"(1.2184696791468346e-07, 0.0, 0.0, 0.0, 1.2184696791468346e-07, 0.0, 0.0, 0.0, 1.2184696791468346e-07)",-1.24544455,0.25497290000000117,9.67916355,"(8.999999999999999e-08, 0.0, 0.0, 0.0, 8.999999999999999e-08, 0.0, 0.0, 0.0, 8.999999999999999e-08)"
2025/07/05/17:49:37.111940,10336,1751712577,121147008,base_link,-0.02703489564549889,-0.06030625561691558,0.30098499807074036,-0.9513360609622978,"(1.0, 0.0, 0.0, 0.0, 1.0, 0.0, 0.0, 0.0, 1.0)",0.02760673128068447,-0.00046395743265744137,0.3174351453781128,"(1.2184696791468346e-07, 0.0, 0.0, 0.0, 1.2184696791468346e-07, 0.0, 0.0, 0.0, 1.2184696791468346e-07)",-1.28467115,0.1470997500000012,9.65955025,"(8.999999999999999e-08, 0.0, 0.0, 0.0, 8.999999999999999e-08, 0.0, 0.0, 0.0, 8.999999999999999e-08)"
2025/07/05/17:49:37.212211,10337,1751712577,221147008,base_link,-0.029678507555097548,-0.059230628345249385,0.2854277008080656,-0.9561077065197989,"(1.0, 0.0, 0.0, 0.0, 1.0, 0.0, 0.0, 0.0, 1.0)",0.04067431762814522,-0.004961747210472783,0.32066240906715393,"(1.2184696791468346e-07, 0.0, 0.0, 0.0, 1.2184696791468346e-07, 0.0, 0.0, 0.0, 1.2184696791468346e-07)",-1.2356379,0.3040061500000012,9.639936950000001,"(8.999999999999999e-08, 0.0, 0.0, 0.0, 8.999999999999999e-08, 0.0, 0.0, 0.0, 8.999999999999999e-08)"
2025/07/05/17:49:37.292346,10338,1751712577,301147008,base_link,-0.030755470657018936,-0.05876483956456573,0.27286807320074874,-0.9597623712582856,"(1.0, 0.0, 0.0, 0.0, 1.0, 0.0, 0.0, 0.0, 1.0)",0.017406728118658066,-0.0037090331315993872,0.3173507750034332,"(1.2184696791468346e-07, 0.0, 0.0, 0.0, 1.2184696791468346e-07, 0.0, 0.0, 0.0, 1.2184696791468346e-07)",-1.26505785,0.4020726500000012,9.6693569,"(8.999999999999999e-08, 0.0, 0.0, 0.0, 8.999999999999999e-08, 0.0, 0.0, 0.0, 8.999999999999999e-08)"
2025/07/05/17:49:37.392620,10339,1751712577,402147008,base_link,-0.030599549994428144,-0.05879810355776664,0.257042588179616,-0.9641242442860116,"(1.0, 0.0, 0.0, 0.0, 1.0, 0.0, 0.0, 0.0, 1.0)",-0.02370034158229828,0.003250528359785715,0.3177697956562042,"(1.2184696791468346e-07, 0.0, 0.0, 0.0, 1.2184696791468346e-07, 0.0, 0.0, 0.0, 1.2184696791468346e-07)",-1.2552512,0.3628460500000012,9.6889702,"(8.999999999999999e-08, 0.0, 0.0, 0.0, 8.999999999999999e-08, 0.0, 0.0, 0.0, 8.999999999999999e-08)"
2025/07/05/17:49:37.550819,10340,1751712577,560147008,base_link,-0.029319689457196662,-0.05955947376396225,0.23319614104537434,-0.9701611127522267,"(1.0, 0.0, 0.0, 0.0, 1.0, 0.0, 0.0, 0.0, 1.0)",-0.04177239164710045,0.008871005848050154,0.29310956597328186,"(1.2184696791468346e-07, 0.0, 0.0, 0.0, 1.2184696791468346e-07, 0.0, 0.0, 0.0, 1.2184696791468346e-07)",-1.26505785,0.5589790500000011,9.6889702,"(8.999999999999999e-08, 0.0, 0.0, 0.0, 8.999999999999999e-08, 0.0, 0.0, 0.0, 8.999999999999999e-08)"
2025/07/05/17:49:37.631516,10341,1751712577,640147008,base_link,-0.030234679640343712,-0.05944679200693245,0.2235363098947007,-0.9724111585259554,"(1.0, 0.0, 0.0, 0.0, 1.0, 0.0, 0.0, 0.0, 1.0)",-0.012937504798173904,0.005745048634707959,0.2543175220489502,"(1.2184696791468346e-07, 0.0, 0.0, 0.0, 1.2184696791468346e-07, 0.0, 0.0, 0.0, 1.2184696791468346e-07)",-1.2356379,0.6472389000000013,9.69877685,"(8.999999999999999e-08, 0.0, 0.0, 0.0, 8.999999999999999e-08, 0.0, 0.0, 0.0, 8.999999999999999e-08)"
2025/07/05/17:49:37.730825,10342,1751712577,740147008,base_link,-0.042384841280689194,-0.057542534745097254,0.2188721811224349,-0.9731327505820715,"(1.0, 0.0, 0.0, 0.0, 1.0, 0.0, 0.0, 0.0, 1.0)",0.2187018096446991,0.018110290169715895,0.11307422816753387,"(1.2184696791468346e-07, 0.0, 0.0, 0.0, 1.2184696791468346e-07, 0.0, 0.0, 0.0, 1.2184696791468346e-07)",-1.1964113,1.5984839500000012,9.6693569,"(8.999999999999999e-08, 0.0, 0.0, 0.0, 8.999999999999999e-08, 0.0, 0.0, 0.0, 8.999999999999999e-08)"
2025/07/05/17:49:37.830769,10343,1751712577,840147008,base_link,-0.05406264022085578,-0.056216771795449635,0.2197605991895325,-0.9724310693026557,"(1.0, 0.0, 0.0, 0.0, 1.0, 0.0, 0.0, 0.0, 1.0)",0.2621552050113678,0.027352182194590565,-0.015506913885474208,"(1.2184696791468346e-07, 0.0, 0.0, 0.0, 1.2184696791468346e-07, 0.0, 0.0, 0.0, 1.2184696791468346e-07)",-1.34351105,0.9806650000000011,9.6693569,"(8.999999999999999e-08, 0.0, 0.0, 0.0, 8.999999999999999e-08, 0.0, 0.0, 0.0, 8.999999999999999e-08)"
2025/07/05/17:49:37.951941,10344,1751712577,960147008,base_link,-0.056626850364034365,-0.05673449680281731,0.22675966058203173,-0.9706465129093608,"(1.0, 0.0, 0.0, 0.0, 1.0, 0.0, 0.0, 0.0, 1.0)",0.04521934688091278,0.013159770518541319,-0.13476808369159698,"(1.2184696791468346e-07, 0.0, 0.0, 0.0, 1.2184696791468346e-07, 0.0, 0.0, 0.0, 1.2184696791468346e-07)",-1.3925443,1.010084950000001,9.5909037,"(8.999999999999999e-08, 0.0, 0.0, 0.0, 8.999999999999999e-08, 0.0, 0.0, 0.0, 8.999999999999999e-08)"
2025/07/05/17:49:38.034089,10345,1751712578,43147008,base_link,-0.051887129805998494,-0.05822999017096275,0.234496571773458,-0.9689831535334763,"(1.0, 0.0, 0.0, 0.0, 1.0, 0.0, 0.0, 0.0, 1.0)",-0.08838038891553879,0.0023945295251905667,-0.20700380206108093,"(1.2184696791468346e-07, 0.0, 0.0, 0.0, 1.2184696791468346e-07, 0.0, 0.0, 0.0, 1.2184696791468346e-07)",-1.36312435,1.166991350000001,9.610517,"(8.999999999999999e-08, 0.0, 0.0, 0.0, 8.999999999999999e-08, 0.0, 0.0, 0.0, 8.999999999999999e-08)"
2025/07/05/17:49:38.131048,10346,1751712578,140147008,base_link,-0.04354229905596405,-0.05970687969828744,0.2474898637137728,-0.9660682812661605,"(1.0, 0.0, 0.0, 0.0, 1.0, 0.0, 0.0, 0.0, 1.0)",-0.1527814418077469,-0.015932817012071644,-0.28733503818511963,"(1.2184696791468346e-07, 0.0, 0.0, 0.0, 1.2184696791468346e-07, 0.0, 0.0, 0.0, 1.2184696791468346e-07)",-1.3337044,0.8433719000000012,9.58109705,"(8.999999999999999e-08, 0.0, 0.0, 0.0, 8.999999999999999e-08, 0.0, 0.0, 0.0, 8.999999999999999e-08)"
2025/07/05/17:49:38.230694,10347,1751712578,240147008,base_link,-0.03468644276663082,-0.06057506304931824,0.26149492827863763,-0.962677471902879,"(1.0, 0.0, 0.0, 0.0, 1.0, 0.0, 0.0, 0.0, 1.0)",-0.1541709154844284,-0.03399772569537167,-0.31416693329811096,"(1.2184696791468346e-07, 0.0, 0.0, 0.0, 1.2184696791468346e-07, 0.0, 0.0, 0.0, 1.2184696791468346e-07)",-1.3533177,0.5001391500000012,9.5320638,"(8.999999999999999e-08, 0.0, 0.0, 0.0, 8.999999999999999e-08, 0.0, 0.0, 0.0, 8.999999999999999e-08)"
2025/07/05/17:49:38.330780,10348,1751712578,340147008,base_link,-0.028389156395685344,-0.06119944206429005,0.2750742815991709,-0.9590530870045,"(1.0, 0.0, 0.0, 0.0, 1.0, 0.0, 0.0, 0.0, 1.0)",-0.11238992214202881,-0.025577979162335434,-0.30354660749435425,"(1.2184696791468346e-07, 0.0, 0.0, 0.0, 1.2184696791468346e-07, 0.0, 0.0, 0.0, 1.2184696791468346e-07)",-1.32389775,0.1863263500000012,9.67916355,"(8.999999999999999e-08, 0.0, 0.0, 0.0, 8.999999999999999e-08, 0.0, 0.0, 0.0, 8.999999999999999e-08)"
2025/07/05/17:49:38.511964,10349,1751712578,521147008,base_link,-0.027187902679629124,-0.060251208526155335,0.2961954187484289,-0.9528372808257783,"(1.0, 0.0, 0.0, 0.0, 1.0, 0.0, 0.0, 0.0, 1.0)",0.03832617774605751,-0.010063849389553101,-0.24794869124889374,"(1.2184696791468346e-07, 0.0, 0.0, 0.0, 1.2184696791468346e-07, 0.0, 0.0, 0.0, 1.2184696791468346e-07)",-1.26505785,-0.11767979999999882,9.6889702,"(8.999999999999999e-08, 0.0, 0.0, 0.0, 8.999999999999999e-08, 0.0, 0.0, 0.0, 8.999999999999999e-08)"
2025/07/05/17:49:38.614651,10350,1751712578,624147008,base_link,-0.03061837411644461,-0.05885468963181896,0.3069285704920664,-0.9494174494343909,"(1.0, 0.0, 0.0, 0.0, 1.0, 0.0, 0.0, 0.0, 1.0)",0.09516825526952744,-0.005366100464016228,-0.23215283453464508,"(1.2184696791468346e-07, 0.0, 0.0, 0.0, 1.2184696791468346e-07, 0.0, 0.0, 0.0, 1.2184696791468346e-07)",-1.30428445,1.187757602499695e-15,9.69877685,"(8.999999999999999e-08, 0.0, 0.0, 0.0, 8.999999999999999e-08, 0.0, 0.0, 0.0, 8.999999999999999e-08)"
2025/07/05/17:49:38.692003,10351,1751712578,701147008,base_link,-0.0326818018408225,-0.058047164487817354,0.3152442612062081,-0.9466696796137042,"(1.0, 0.0, 0.0, 0.0, 1.0, 0.0, 0.0, 0.0, 1.0)",0.07895378768444061,-0.0026205938775092637,-0.22443728148937225,"(1.2184696791468346e-07, 0.0, 0.0, 0.0, 1.2184696791468346e-07, 0.0, 0.0, 0.0, 1.2184696791468346e-07)",-1.28467115,-0.039226599999998814,9.6889702,"(8.999999999999999e-08, 0.0, 0.0, 0.0, 8.999999999999999e-08, 0.0, 0.0, 0.0, 8.999999999999999e-08)"
2025/07/05/17:49:38.793137,10352,1751712578,802147008,base_link,-0.033760982307793744,-0.057844917439604106,0.3256007893726322,-0.9431321686592695,"(1.0, 0.0, 0.0, 0.0, 1.0, 0.0, 0.0, 0.0, 1.0)",0.04067717492580414,-2.6307534426728124e-06,-0.22651074826717377,"(1.2184696791468346e-07, 0.0, 0.0, 0.0, 1.2184696791468346e-07, 0.0, 0.0, 0.0, 1.2184696791468346e-07)",-1.28467115,0.11767980000000118,9.67916355,"(8.999999999999999e-08, 0.0, 0.0, 0.0, 8.999999999999999e-08, 0.0, 0.0, 0.0, 8.999999999999999e-08)"
2025/07/05/17:49:38.871585,10353,1751712578,880147008,base_link,-0.03323879260690721,-0.057811171665396295,0.3333561718087671,-0.9404396385806548,"(1.0, 0.0, 0.0, 0.0, 1.0, 0.0, 0.0, 0.0, 1.0)",0.011704953387379646,-0.00439001806080344,-0.21937379240989685,"(1.2184696791468346e-07, 0.0, 0.0, 0.0, 1.2184696791468346e-07, 0.0, 0.0, 0.0, 1.2184696791468346e-07)",-1.26505785,0.05883990000000119,9.6889702,"(8.999999999999999e-08, 0.0, 0.0, 0.0, 8.999999999999999e-08, 0.0, 0.0, 0.0, 8.999999999999999e-08)"
2025/07/05/17:49:38.993185,10354,1751712579,1147008,base_link,-0.018962641344240524,-0.061857657515643656,0.33713199952017747,-0.9392316345499943,"(1.0, 0.0, 0.0, 0.0, 1.0, 0.0, 0.0, 0.0, 1.0)",-0.2423591911792755,-0.01926889829337598,-0.0924055352807045,"(1.2184696791468346e-07, 0.0, 0.0, 0.0, 1.2184696791468346e-07, 0.0, 0.0, 0.0, 1.2184696791468346e-07)",-1.2356379,-0.49033249999999884,9.6497436,"(8.999999999999999e-08, 0.0, 0.0, 0.0, 8.999999999999999e-08, 0.0, 0.0, 0.0, 8.999999999999999e-08)"
2025/07/05/17:49:39.071934,10355,1751712579,80147008,base_link,-0.001479388253142378,-0.06762862333770317,0.33176859445424306,-0.9409323995110912,"(1.0, 0.0, 0.0, 0.0, 1.0, 0.0, 0.0, 0.0, 1.0)",-0.4718239903450012,-0.017353439703583707,0.07358607649803162,"(1.2184696791468346e-07, 0.0, 0.0, 0.0, 1.2184696791468346e-07, 0.0, 0.0, 0.0, 1.2184696791468346e-07)",-1.3925443,-1.8436501999999988,9.69877685,"(8.999999999999999e-08, 0.0, 0.0, 0.0, 8.999999999999999e-08, 0.0, 0.0, 0.0, 8.999999999999999e-08)"
2025/07/05/17:49:39.171959,10356,1751712579,180147008,base_link,0.007963485155403781,-0.07121829720590418,0.3214494736958594,-0.9442111908402304,"(1.0, 0.0, 0.0, 0.0, 1.0, 0.0, 0.0, 0.0, 1.0)",-0.25855007767677307,-0.0031594594474881653,0.1906190812587738,"(1.2184696791468346e-07, 0.0, 0.0, 0.0, 1.2184696791468346e-07, 0.0, 0.0, 0.0, 1.2184696791468346e-07)",-1.3533177,-0.5982056499999988,9.7085835,"(8.999999999999999e-08, 0.0, 0.0, 0.0, 8.999999999999999e-08, 0.0, 0.0, 0.0, 8.999999999999999e-08)"
2025/07/05/17:49:39.272267,10357,1751712579,280147008,base_link,0.00031973816899555623,-0.06947859384979173,0.30786286910651683,-0.9488904449880728,"(1.0, 0.0, 0.0, 0.0, 1.0, 0.0, 0.0, 0.0, 1.0)",0.11436726152896881,0.00734696071594957,0.28282737731933594,"(1.2184696791468346e-07, 0.0, 0.0, 0.0, 1.2184696791468346e-07, 0.0, 0.0, 0.0, 1.2184696791468346e-07)",-1.3533177,-0.6472388999999988,9.639936950000001,"(8.999999999999999e-08, 0.0, 0.0, 0.0, 8.999999999999999e-08, 0.0, 0.0, 0.0, 8.999999999999999e-08)"
2025/07/05/17:49:39.371655,10358,1751712579,380147008,base_link,-0.016223895264967734,-0.06452943818756726,0.2921156521297156,-0.9540656070787055,"(1.0, 0.0, 0.0, 0.0, 1.0, 0.0, 0.0, 0.0, 1.0)",0.3281303346157074,0.0016362169990316454,0.3439677953720093,"(1.2184696791468346e-07, 0.0, 0.0, 0.0, 1.2184696791468346e-07, 0.0, 0.0, 0.0, 1.2184696791468346e-07)",-1.32389775,-0.39226599999999884,9.62032365,"(8.999999999999999e-08, 0.0, 0.0, 0.0, 8.999999999999999e-08, 0.0, 0.0, 0.0, 8.999999999999999e-08)"
2025/07/05/17:49:39.531174,10359,1751712579,540147008,base_link,-0.03348275686372975,-0.05847887105928595,0.26538981847286447,-0.9617834324230046,"(1.0, 0.0, 0.0, 0.0, 1.0, 0.0, 0.0, 0.0, 1.0)",0.17213164269924164,-0.00924352556467052,0.3551793396472931,"(1.2184696791468346e-07, 0.0, 0.0, 0.0, 1.2184696791468346e-07, 0.0, 0.0, 0.0, 1.2184696791468346e-07)",-1.32389775,0.11767980000000118,9.6301303,"(8.999999999999999e-08, 0.0, 0.0, 0.0, 8.999999999999999e-08, 0.0, 0.0, 0.0, 8.999999999999999e-08)"
2025/07/05/17:49:39.633753,10360,1751712579,643147008,base_link,-0.033374800533490304,-0.058461398025690295,0.24898669844640858,-0.9661645882700262,"(1.0, 0.0, 0.0, 0.0, 1.0, 0.0, 0.0, 0.0, 1.0)",-0.011666212230920792,-8.378457278009173e-05,0.3312325179576874,"(1.2184696791468346e-07, 0.0, 0.0, 0.0, 1.2184696791468346e-07, 0.0, 0.0, 0.0, 1.2184696791468346e-07)",-1.26505785,0.4216859500000012,9.67916355,"(8.999999999999999e-08, 0.0, 0.0, 0.0, 8.999999999999999e-08, 0.0, 0.0, 0.0, 8.999999999999999e-08)"
2025/07/05/17:49:39.731034,10361,1751712579,740147008,base_link,-0.027621459191050697,-0.06010248847407513,0.23303793713713694,-0.9702154738645683,"(1.0, 0.0, 0.0, 0.0, 1.0, 0.0, 0.0, 0.0, 1.0)",-0.13681510090827942,0.004473479464650192,0.31206566095352173,"(1.2184696791468346e-07, 0.0, 0.0, 0.0, 1.2184696791468346e-07, 0.0, 0.0, 0.0, 1.2184696791468346e-07)",-1.28467115,0.41187930000000117,9.71839015,"(8.999999999999999e-08, 0.0, 0.0, 0.0, 8.999999999999999e-08, 0.0, 0.0, 0.0, 8.999999999999999e-08)"
2025/07/05/17:49:39.833635,10362,1751712579,843147008,base_link,-0.021698530199609167,-0.06148534353219856,0.2179889968153374,-0.9737707756886871,"(1.0, 0.0, 0.0, 0.0, 1.0, 0.0, 0.0, 0.0, 1.0)",-0.1520041972398758,-0.0006951335817575093,0.29586493968963623,"(1.2184696791468346e-07, 0.0, 0.0, 0.0, 1.2184696791468346e-07, 0.0, 0.0, 0.0, 1.2184696791468346e-07)",-1.26505785,0.39226600000000117,9.6497436,"(8.999999999999999e-08, 0.0, 0.0, 0.0, 8.999999999999999e-08, 0.0, 0.0, 0.0, 8.999999999999999e-08)"
2025/07/05/17:49:39.930738,10363,1751712579,940147008,base_link,-0.027040758579575615,-0.060490101411154455,0.20899286676677603,-0.9756698861025249,"(1.0, 0.0, 0.0, 0.0, 1.0, 0.0, 0.0, 0.0, 1.0)",0.06246039271354675,0.0007468340918421985,0.19577568769454956,"(1.2184696791468346e-07, 0.0, 0.0, 0.0, 1.2184696791468346e-07, 0.0, 0.0, 0.0, 1.2184696791468346e-07)",-1.24544455,0.8237586000000012,9.69877685,"(8.999999999999999e-08, 0.0, 0.0, 0.0, 8.999999999999999e-08, 0.0, 0.0, 0.0, 8.999999999999999e-08)"
2025/07/05/17:49:40.034002,10364,1751712580,43147008,base_link,-0.045881836639739555,-0.05775900484868908,0.20798756530310875,-0.9753460550516102,"(1.0, 0.0, 0.0, 0.0, 1.0, 0.0, 0.0, 0.0, 1.0)",0.37147387862205505,0.022544719278812412,0.04232942312955856,"(1.2184696791468346e-07, 0.0, 0.0, 0.0, 1.2184696791468346e-07, 0.0, 0.0, 0.0, 1.2184696791468346e-07)",-1.3337044,1.323897750000001,9.6889702,"(8.999999999999999e-08, 0.0, 0.0, 0.0, 8.999999999999999e-08, 0.0, 0.0, 0.0, 8.999999999999999e-08)"
2025/07/05/17:49:40.130536,10365,1751712580,140147008,base_link,-0.06269537697722238,-0.05581735582738782,0.21362201543231885,-0.9733033170686087,"(1.0, 0.0, 0.0, 0.0, 1.0, 0.0, 0.0, 0.0, 1.0)",0.37163159251213074,0.02934128418564795,-0.10045307129621506,"(1.2184696791468346e-07, 0.0, 0.0, 0.0, 1.2184696791468346e-07, 0.0, 0.0, 0.0, 1.2184696791468346e-07)",-1.52003075,1.480804150000001,9.7478101,"(8.999999999999999e-08, 0.0, 0.0, 0.0, 8.999999999999999e-08, 0.0, 0.0, 0.0, 8.999999999999999e-08)"
2025/07/05/17:49:40.233667,10366,1751712580,243147008,base_link,-0.062350668074053046,-0.056695651551647866,0.2226009115126475,-0.9712604344250781,"(1.0, 0.0, 0.0, 0.0, 1.0, 0.0, 0.0, 0.0, 1.0)",0.04484833776950836,0.008981261402368521,-0.19751037657260895,"(1.2184696791468346e-07, 0.0, 0.0, 0.0, 1.2184696791468346e-07, 0.0, 0.0, 0.0, 1.2184696791468346e-07)",-1.38273765,0.8924051500000011,9.5712904,"(8.999999999999999e-08, 0.0, 0.0, 0.0, 8.999999999999999e-08, 0.0, 0.0, 0.0, 8.999999999999999e-08)"
2025/07/05/17:49:40.330715,10367,1751712580,340147008,base_link,-0.04012349646399412,-0.060537988905952834,0.22864002417152235,-0.9707981233385096,"(1.0, 0.0, 0.0, 0.0, 1.0, 0.0, 0.0, 0.0, 1.0)",-0.4165942370891571,-0.030254293233156225,-0.17307358980178833,"(1.2184696791468346e-07, 0.0, 0.0, 0.0, 1.2184696791468346e-07, 0.0, 0.0, 0.0, 1.2184696791468346e-07)",-1.2748645,0.1765197000000012,9.54187045,"(8.999999999999999e-08, 0.0, 0.0, 0.0, 8.999999999999999e-08, 0.0, 0.0, 0.0, 8.999999999999999e-08)"
2025/07/05/17:49:40.492800,10368,1751712580,502147008,base_link,0.01064946490711842,-0.06888034697380567,0.22131364734062753,-0.9727087725515526,"(1.0, 0.0, 0.0, 0.0, 1.0, 0.0, 0.0, 0.0, 1.0)",-0.6612744331359863,-0.04505978524684905,0.08105624467134476,"(1.2184696791468346e-07, 0.0, 0.0, 0.0, 1.2184696791468346e-07, 0.0, 0.0, 0.0, 1.2184696791468346e-07)",-1.3337044,-0.37265269999999884,9.65955025,"(8.999999999999999e-08, 0.0, 0.0, 0.0, 8.999999999999999e-08, 0.0, 0.0, 0.0, 8.999999999999999e-08)"
2025/07/05/17:49:40.592034,10369,1751712580,601147008,base_link,0.017573140996904345,-0.06984330403287792,0.21045723342867328,-0.9749465885343784,"(1.0, 0.0, 0.0, 0.0, 1.0, 0.0, 0.0, 0.0, 1.0)",-0.2022300362586975,-0.021835748106241202,0.19538667798042297,"(1.2184696791468346e-07, 0.0, 0.0, 0.0, 1.2184696791468346e-07, 0.0, 0.0, 0.0, 1.2184696791468346e-07)",-1.3337044,-0.4412992499999988,9.6889702,"(8.999999999999999e-08, 0.0, 0.0, 0.0, 8.999999999999999e-08, 0.0, 0.0, 0.0, 8.999999999999999e-08)"
2025/07/05/17:49:40.672542,10370,1751712580,680147008,base_link,0.007352664480878562,-0.06779579921103807,0.1992558265250715,-0.977571881515717,"(1.0, 0.0, 0.0, 0.0, 1.0, 0.0, 0.0, 0.0, 1.0)",0.18536722660064697,-0.008943859487771955,0.27487850189208984,"(1.2184696791468346e-07, 0.0, 0.0, 0.0, 1.2184696791468346e-07, 0.0, 0.0, 0.0, 1.2184696791468346e-07)",-1.32389775,-0.5393657499999989,9.5712904,"(8.999999999999999e-08, 0.0, 0.0, 0.0, 8.999999999999999e-08, 0.0, 0.0, 0.0, 8.999999999999999e-08)"
2025/07/05/17:49:40.772873,10371,1751712580,780147008,base_link,-0.01394346049377833,-0.06407746816913541,0.18342658884493462,-0.9808436901398727,"(1.0, 0.0, 0.0, 0.0, 1.0, 0.0, 0.0, 0.0, 1.0)",0.4214722812175751,0.0016835459973663512,0.34391894936561584,"(1.2184696791468346e-07, 0.0, 0.0, 0.0, 1.2184696791468346e-07, 0.0, 0.0, 0.0, 1.2184696791468346e-07)",-1.30428445,-0.29419949999999884,9.6497436,"(8.999999999999999e-08, 0.0, 0.0, 0.0, 8.999999999999999e-08, 0.0, 0.0, 0.0, 8.999999999999999e-08)"
2025/07/05/17:49:40.873449,10372,1751712580,880147008,base_link,-0.0296837126285822,-0.0615362125521263,0.16675841923109125,-0.9836278774846059,"(1.0, 0.0, 0.0, 0.0, 1.0, 0.0, 0.0, 0.0, 1.0)",0.32491636276245117,0.009636023081839128,0.351395845413208,"(1.2184696791468346e-07, 0.0, 0.0, 0.0, 1.2184696791468346e-07, 0.0, 0.0, 0.0, 1.2184696791468346e-07)",-1.3140911,0.10787315000000118,9.6693569,"(8.999999999999999e-08, 0.0, 0.0, 0.0, 8.999999999999999e-08, 0.0, 0.0, 0.0, 8.999999999999999e-08)"
2025/07/05/17:49:41.012562,10373,1751712581,21147008,base_link,-0.030912484395948563,-0.06077885423993339,0.14473220512541635,-0.9871185025037702,"(1.0, 0.0, 0.0, 0.0, 1.0, 0.0, 0.0, 0.0, 1.0)",-0.03579656407237053,-0.0030491854995488748,0.30424338579177856,"(1.2184696791468346e-07, 0.0, 0.0, 0.0, 1.2184696791468346e-07, 0.0, 0.0, 0.0, 1.2184696791468346e-07)",-1.28467115,0.4805258500000012,9.65955025,"(8.999999999999999e-08, 0.0, 0.0, 0.0, 8.999999999999999e-08, 0.0, 0.0, 0.0, 8.999999999999999e-08)"
2025/07/05/17:49:41.092332,10374,1751712581,101147008,base_link,-0.024009209208880052,-0.061430495058682276,0.1328882955589495,-0.9889340488897359,"(1.0, 0.0, 0.0, 0.0, 1.0, 0.0, 0.0, 0.0, 1.0)",-0.17841210961341858,-0.00797716341912743,0.28209295868873596,"(1.2184696791468346e-07, 0.0, 0.0, 0.0, 1.2184696791468346e-07, 0.0, 0.0, 0.0, 1.2184696791468346e-07)",-1.32389775,0.5197524500000011,9.67916355,"(8.999999999999999e-08, 0.0, 0.0, 0.0, 8.999999999999999e-08, 0.0, 0.0, 0.0, 8.999999999999999e-08)"
2025/07/05/17:49:41.171713,10375,1751712581,180147008,base_link,-0.01616363710063106,-0.06243318136736132,0.12125042941621361,-0.9905246933148173,"(1.0, 0.0, 0.0, 0.0, 1.0, 0.0, 0.0, 0.0, 1.0)",-0.22136005759239197,-0.00043058698065575625,0.27054932713508606,"(1.2184696791468346e-07, 0.0, 0.0, 0.0, 1.2184696791468346e-07, 0.0, 0.0, 0.0, 1.2184696791468346e-07)",-1.30428445,0.4805258500000012,9.73800345,"(8.999999999999999e-08, 0.0, 0.0, 0.0, 8.999999999999999e-08, 0.0, 0.0, 0.0, 8.999999999999999e-08)"
2025/07/05/17:49:41.251331,10376,1751712581,260147008,base_link,-0.010769530525635411,-0.0636736619156765,0.10964211976149013,-0.9918711043097852,"(1.0, 0.0, 0.0, 0.0, 1.0, 0.0, 0.0, 0.0, 1.0)",-0.17637254297733307,0.012781968340277705,0.27103230357170105,"(1.2184696791468346e-07, 0.0, 0.0, 0.0, 1.2184696791468346e-07, 0.0, 0.0, 0.0, 1.2184696791468346e-07)",-1.32389775,0.39226600000000117,9.7085835,"(8.999999999999999e-08, 0.0, 0.0, 0.0, 8.999999999999999e-08, 0.0, 0.0, 0.0, 8.999999999999999e-08)"
2025/07/05/17:49:41.330421,10377,1751712581,340147008,base_link,-0.009133599446049063,-0.06437024386072401,0.09732511194028742,-0.9931268154935101,"(1.0, 0.0, 0.0, 0.0, 1.0, 0.0, 0.0, 0.0, 1.0)",-0.08448585867881775,0.013168486766517197,0.2899366617202759,"(1.2184696791468346e-07, 0.0, 0.0, 0.0, 1.2184696791468346e-07, 0.0, 0.0, 0.0, 1.2184696791468346e-07)",-1.32389775,0.27458620000000117,9.639936950000001,"(8.999999999999999e-08, 0.0, 0.0, 0.0, 8.999999999999999e-08, 0.0, 0.0, 0.0, 8.999999999999999e-08)"
2025/07/05/17:49:41.471059,10378,1751712581,480147008,base_link,-0.013475250854156648,-0.06441618148317367,0.07350243107857451,-0.9951212819566688,"(1.0, 0.0, 0.0, 0.0, 1.0, 0.0, 0.0, 0.0, 1.0)",0.05453667417168617,0.0031133964657783925,0.339987576007843,"(1.2184696791468346e-07, 0.0, 0.0, 0.0, 1.2184696791468346e-07, 0.0, 0.0, 0.0, 1.2184696791468346e-07)",-1.3140911,0.1470997500000012,9.62032365,"(8.999999999999999e-08, 0.0, 0.0, 0.0, 8.999999999999999e-08, 0.0, 0.0, 0.0, 8.999999999999999e-08)"
2025/07/05/17:49:41.591959,10379,1751712581,601147008,base_link,-0.01983786494586988,-0.0642408962954223,0.05345793427857747,-0.996304077889987,"(1.0, 0.0, 0.0, 0.0, 1.0, 0.0, 0.0, 0.0, 1.0)",0.08866716921329498,0.004150104708969634,0.3320496678352356,"(1.2184696791468346e-07, 0.0, 0.0, 0.0, 1.2184696791468346e-07, 0.0, 0.0, 0.0, 1.2184696791468346e-07)",-1.32389775,0.4805258500000012,9.67916355,"(8.999999999999999e-08, 0.0, 0.0, 0.0, 8.999999999999999e-08, 0.0, 0.0, 0.0, 8.999999999999999e-08)"
2025/07/05/17:49:41.671442,10380,1751712581,681147008,base_link,-0.023485954529588713,-0.06443036083544618,0.0418361214881141,-0.9967682165284365,"(1.0, 0.0, 0.0, 0.0, 1.0, 0.0, 0.0, 0.0, 1.0)",0.07295452058315277,0.009586093015968836,0.2978080213069916,"(1.2184696791468346e-07, 0.0, 0.0, 0.0, 1.2184696791468346e-07, 0.0, 0.0, 0.0, 1.2184696791468346e-07)",-1.3925443,0.6962721500000013,9.7085835,"(8.999999999999999e-08, 0.0, 0.0, 0.0, 8.999999999999999e-08, 0.0, 0.0, 0.0, 8.999999999999999e-08)"
2025/07/05/17:49:41.772664,10381,1751712581,780147008,base_link,-0.03503061290997762,-0.06507223735926351,0.03481899978497698,-0.996657462390256,"(1.0, 0.0, 0.0, 0.0, 1.0, 0.0, 0.0, 0.0, 1.0)",0.20046111941337585,0.023702125996351263,0.15946926176548004,"(1.2184696791468346e-07, 0.0, 0.0, 0.0, 1.2184696791468346e-07, 0.0, 0.0, 0.0, 1.2184696791468346e-07)",-1.26505785,1.3435110500000012,9.69877685,"(8.999999999999999e-08, 0.0, 0.0, 0.0, 8.999999999999999e-08, 0.0, 0.0, 0.0, 8.999999999999999e-08)"
2025/07/05/17:49:41.871151,10382,1751712581,880147008,base_link,-0.04556611064203293,-0.06634415082195547,0.03452814430368744,-0.9961576132638927,"(1.0, 0.0, 0.0, 0.0, 1.0, 0.0, 0.0, 0.0, 1.0)",0.23008933663368225,0.03165771812200546,0.011995013803243634,"(1.2184696791468346e-07, 0.0, 0.0, 0.0, 1.2184696791468346e-07, 0.0, 0.0, 0.0, 1.2184696791468346e-07)",-1.40235095,1.1081514500000011,9.639936950000001,"(8.999999999999999e-08, 0.0, 0.0, 0.0, 8.999999999999999e-08, 0.0, 0.0, 0.0, 8.999999999999999e-08)"
2025/07/05/17:49:41.992916,10383,1751712582,1147008,base_link,-0.04699449368488462,-0.06796323165920823,0.04185216079061154,-0.9957012169033916,"(1.0, 0.0, 0.0, 0.0, 1.0, 0.0, 0.0, 0.0, 1.0)",0.02843821793794632,0.021966814994811994,-0.1360127180814743,"(1.2184696791468346e-07, 0.0, 0.0, 0.0, 1.2184696791468346e-07, 0.0, 0.0, 0.0, 1.2184696791468346e-07)",-1.4709975,1.549450700000001,9.639936950000001,"(8.999999999999999e-08, 0.0, 0.0, 0.0, 8.999999999999999e-08, 0.0, 0.0, 0.0, 8.999999999999999e-08)"
2025/07/05/17:49:42.091983,10384,1751712582,101147008,base_link,-0.04035485416675154,-0.06833474457776262,0.052945824683207514,-0.9954388921863999,"(1.0, 0.0, 0.0, 0.0, 1.0, 0.0, 0.0, 0.0, 1.0)",-0.1156727522611618,-0.005846197251230507,-0.23634934425354004,"(1.2184696791468346e-07, 0.0, 0.0, 0.0, 1.2184696791468346e-07, 0.0, 0.0, 0.0, 1.2184696791468346e-07)",-1.4317709,1.2650578500000011,9.5124505,"(8.999999999999999e-08, 0.0, 0.0, 0.0, 8.999999999999999e-08, 0.0, 0.0, 0.0, 8.999999999999999e-08)"
2025/07/05/17:49:42.173637,10385,1751712582,180147008,base_link,-0.03355786697656531,-0.06803278239267535,0.06378082638731042,-0.9950765881424635,"(1.0, 0.0, 0.0, 0.0, 1.0, 0.0, 0.0, 0.0, 1.0)",-0.14616647362709045,-0.025106908753514325,-0.2924245595932007,"(1.2184696791468346e-07, 0.0, 0.0, 0.0, 1.2184696791468346e-07, 0.0, 0.0, 0.0, 1.2184696791468346e-07)",-1.52003075,1.304284450000001,9.56148375,"(8.999999999999999e-08, 0.0, 0.0, 0.0, 8.999999999999999e-08, 0.0, 0.0, 0.0, 8.999999999999999e-08)"
2025/07/05/17:49:42.252008,10386,1751712582,260147008,base_link,-0.02652878120559695,-0.06735691781272844,0.07563232018966909,-0.994504410011963,"(1.0, 0.0, 0.0, 0.0, 1.0, 0.0, 0.0, 0.0, 1.0)",-0.15506428480148315,-0.036552492529153865,-0.31636473536491394,"(1.2184696791468346e-07, 0.0, 0.0, 0.0, 1.2184696791468346e-07, 0.0, 0.0, 0.0, 1.2184696791468346e-07)",-1.4121576,0.6276256000000011,9.610517,"(8.999999999999999e-08, 0.0, 0.0, 0.0, 8.999999999999999e-08, 0.0, 0.0, 0.0, 8.999999999999999e-08)"
2025/07/05/17:49:42.350957,10387,1751712582,360147008,base_link,-0.017305030508660262,-0.0666601097349527,0.08869454810523131,-0.9936751193552281,"(1.0, 0.0, 0.0, 0.0, 1.0, 0.0, 0.0, 0.0, 1.0)",-0.15696431696414948,-0.03309431672096256,-0.29460012912750244,"(1.2184696791468346e-07, 0.0, 0.0, 0.0, 1.2184696791468346e-07, 0.0, 0.0, 0.0, 1.2184696791468346e-07)",-1.372931,0.39226600000000117,9.6693569,"(8.999999999999999e-08, 0.0, 0.0, 0.0, 8.999999999999999e-08, 0.0, 0.0, 0.0, 8.999999999999999e-08)"
2025/07/05/17:49:42.530902,10388,1751712582,540147008,base_link,0.014232291413912046,-0.06771731602288088,0.0885788865790943,-0.9936627133208604,"(1.0, 0.0, 0.0, 0.0, 1.0, 0.0, 0.0, 0.0, 1.0)",-0.4222128093242645,-0.018094381317496293,0.04548780992627144,"(1.2184696791468346e-07, 0.0, 0.0, 0.0, 1.2184696791468346e-07, 0.0, 0.0, 0.0, 1.2184696791468346e-07)",-1.1964113,-0.6276255999999988,9.69877685,"(8.999999999999999e-08, 0.0, 0.0, 0.0, 8.999999999999999e-08, 0.0, 0.0, 0.0, 8.999999999999999e-08)"
2025/07/05/17:49:42.650405,10389,1751712582,660147008,base_link,0.019908306105450947,-0.06822796425243546,0.07664769021212359,-0.9945218629206332,"(1.0, 0.0, 0.0, 0.0, 1.0, 0.0, 0.0, 0.0, 1.0)",-0.10725481808185577,-0.00405793637037275,0.18710993230342865,"(1.2184696791468346e-07, 0.0, 0.0, 0.0, 1.2184696791468346e-07, 0.0, 0.0, 0.0, 1.2184696791468346e-07)",-1.372931,-0.45110589999999884,9.6497436,"(8.999999999999999e-08, 0.0, 0.0, 0.0, 8.999999999999999e-08, 0.0, 0.0, 0.0, 8.999999999999999e-08)"
2025/07/05/17:49:42.750328,10390,1751712582,760147008,base_link,0.007851526393494337,-0.06745029817417236,0.06321968180340737,-0.9956867392117781,"(1.0, 0.0, 0.0, 0.0, 1.0, 0.0, 0.0, 0.0, 1.0)",0.2155408263206482,-0.004258020780980554,0.2687458097934723,"(1.2184696791468346e-07, 0.0, 0.0, 0.0, 1.2184696791468346e-07, 0.0, 0.0, 0.0, 1.2184696791468346e-07)",-1.3533177,-0.49033249999999884,9.62032365,"(8.999999999999999e-08, 0.0, 0.0, 0.0, 8.999999999999999e-08, 0.0, 0.0, 0.0, 8.999999999999999e-08)"
2025/07/05/17:49:42.850745,10391,1751712582,860147008,base_link,-0.00922153341271338,-0.0665604300906927,0.048480054546462696,-0.9965612659434602,"(1.0, 0.0, 0.0, 0.0, 1.0, 0.0, 0.0, 0.0, 1.0)",0.32950133085250854,-0.0006465625483542301,0.3097786605358124,"(1.2184696791468346e-07, 0.0, 0.0, 0.0, 1.2184696791468346e-07, 0.0, 0.0, 0.0, 1.2184696791468346e-07)",-1.30428445,-0.2255529499999988,9.6889702,"(8.999999999999999e-08, 0.0, 0.0, 0.0, 8.999999999999999e-08, 0.0, 0.0, 0.0, 8.999999999999999e-08)"
2025/07/05/17:49:42.970983,10392,1751712582,980147008,base_link,-0.028108285021164855,-0.065291587541223,0.036998508452848404,-0.996783849829932,"(1.0, 0.0, 0.0, 0.0, 1.0, 0.0, 0.0, 0.0, 1.0)",0.2978942394256592,-0.004246493335813259,0.20527775585651398,"(1.2184696791468346e-07, 0.0, 0.0, 0.0, 1.2184696791468346e-07, 0.0, 0.0, 0.0, 1.2184696791468346e-07)",-1.2356379,0.4805258500000012,9.62032365,"(8.999999999999999e-08, 0.0, 0.0, 0.0, 8.999999999999999e-08, 0.0, 0.0, 0.0, 8.999999999999999e-08)"
2025/07/05/17:49:43.070320,10393,1751712583,80147008,base_link,-0.04546542093056872,-0.06564816857796033,0.039346466219242975,-0.9960296527001713,"(1.0, 0.0, 0.0, 0.0, 1.0, 0.0, 0.0, 0.0, 1.0)",0.3528813421726227,0.018358243629336354,-0.017740301787853244,"(1.2184696791468346e-07, 0.0, 0.0, 0.0, 1.2184696791468346e-07, 0.0, 0.0, 0.0, 1.2184696791468346e-07)",-1.48080415,2.206496250000001,9.81645665,"(8.999999999999999e-08, 0.0, 0.0, 0.0, 8.999999999999999e-08, 0.0, 0.0, 0.0, 8.999999999999999e-08)"
2025/07/05/17:49:43.172143,10394,1751712583,180147008,base_link,-0.05251015313458296,-0.06670308687149501,0.04908538697435421,-0.9951803890778667,"(1.0, 0.0, 0.0, 0.0, 1.0, 0.0, 0.0, 0.0, 1.0)",0.1813313215970993,0.02086325734853742,-0.19170373678207397,"(1.2184696791468346e-07, 0.0, 0.0, 0.0, 1.2184696791468346e-07, 0.0, 0.0, 0.0, 1.2184696791468346e-07)",-1.46119085,1.5298374000000012,9.62032365,"(8.999999999999999e-08, 0.0, 0.0, 0.0, 8.999999999999999e-08, 0.0, 0.0, 0.0, 8.999999999999999e-08)"
2025/07/05/17:49:43.273158,10395,1751712583,280147008,base_link,-0.04503517703338992,-0.06681466263171856,0.06282529680745469,-0.9947666137180298,"(1.0, 0.0, 0.0, 0.0, 1.0, 0.0, 0.0, 0.0, 1.0)",-0.1076352670788765,-0.014446015469729937,-0.2931000590324402,"(1.2184696791468346e-07, 0.0, 0.0, 0.0, 1.2184696791468346e-07, 0.0, 0.0, 0.0, 1.2184696791468346e-07)",-1.40235095,0.9120184500000011,9.48303055,"(8.999999999999999e-08, 0.0, 0.0, 0.0, 8.999999999999999e-08, 0.0, 0.0, 0.0, 8.999999999999999e-08)"
2025/07/05/17:49:43.350860,10396,1751712583,360147008,base_link,-0.032389289484566396,-0.06639871357710297,0.07524753485950875,-0.9944244331569683,"(1.0, 0.0, 0.0, 0.0, 1.0, 0.0, 0.0, 0.0, 1.0)",-0.2735256552696228,-0.04082697629928593,-0.3375036418437958,"(1.2184696791468346e-07, 0.0, 0.0, 0.0, 1.2184696791468346e-07, 0.0, 0.0, 0.0, 1.2184696791468346e-07)",-1.4317709,0.6668522000000011,9.52225715,"(8.999999999999999e-08, 0.0, 0.0, 0.0, 8.999999999999999e-08, 0.0, 0.0, 0.0, 8.999999999999999e-08)"
2025/07/05/17:49:43.550364,10397,1751712583,560147008,base_link,-0.0034248946630359243,-0.06459897187461391,0.1007840136103842,-0.992803014464537,"(1.0, 0.0, 0.0, 0.0, 1.0, 0.0, 0.0, 0.0, 1.0)",-0.23469014465808868,-0.0435903146862984,-0.2544780373573303,"(1.2184696791468346e-07, 0.0, 0.0, 0.0, 1.2184696791468346e-07, 0.0, 0.0, 0.0, 1.2184696791468346e-07)",-1.34351105,0.1372931000000012,9.62032365,"(8.999999999999999e-08, 0.0, 0.0, 0.0, 8.999999999999999e-08, 0.0, 0.0, 0.0, 8.999999999999999e-08)"
2025/07/05/17:49:43.650262,10398,1751712583,660147008,base_link,0.0031152167025622745,-0.06455040647186518,0.10549527087981353,-0.9923176347678235,"(1.0, 0.0, 0.0, 0.0, 1.0, 0.0, 0.0, 0.0, 1.0)",-0.11863301694393158,-0.016370994970202463,-0.12827198207378387,"(1.2184696791468346e-07, 0.0, 0.0, 0.0, 1.2184696791468346e-07, 0.0, 0.0, 0.0, 1.2184696791468346e-07)",-1.22583125,-0.5883989999999988,9.7870367,"(8.999999999999999e-08, 0.0, 0.0, 0.0, 8.999999999999999e-08, 0.0, 0.0, 0.0, 8.999999999999999e-08)"
2025/07/05/17:49:43.750330,10399,1751712583,760147008,base_link,0.013789665802087575,-0.06619324297569901,0.09837876924390193,-0.9928493931425258,"(1.0, 0.0, 0.0, 0.0, 1.0, 0.0, 0.0, 0.0, 1.0)",-0.2131854146718979,0.008030978031456483,0.0997229740023613,"(1.2184696791468346e-07, 0.0, 0.0, 0.0, 1.2184696791468346e-07, 0.0, 0.0, 0.0, 1.2184696791468346e-07)",-1.30428445,-1.9319100499999988,9.7478101,"(8.999999999999999e-08, 0.0, 0.0, 0.0, 8.999999999999999e-08, 0.0, 0.0, 0.0, 8.999999999999999e-08)"
2025/07/05/17:49:43.850573,10400,1751712583,860147008,base_link,0.014428260643155838,-0.06747045121751226,0.08666072219306442,-0.9938458043058265,"(1.0, 0.0, 0.0, 0.0, 1.0, 0.0, 0.0, 0.0, 1.0)",-0.059919536113739014,0.0187228433787823,0.22413189709186554,"(1.2184696791468346e-07, 0.0, 0.0, 0.0, 1.2184696791468346e-07, 0.0, 0.0, 0.0, 1.2184696791468346e-07)",-1.36312435,-0.6570455499999989,9.6497436,"(8.999999999999999e-08, 0.0, 0.0, 0.0, 8.999999999999999e-08, 0.0, 0.0, 0.0, 8.999999999999999e-08)"
2025/07/05/17:49:43.971095,10401,1751712583,980147008,base_link,0.002113698296999754,-0.06720843135942883,0.06905802860099719,-0.9953439343862291,"(1.0, 0.0, 0.0, 0.0, 1.0, 0.0, 0.0, 0.0, 1.0)",0.19706226885318756,0.007000763900578058,0.2992597818374634,"(1.2184696791468346e-07, 0.0, 0.0, 0.0, 1.2184696791468346e-07, 0.0, 0.0, 0.0, 1.2184696791468346e-07)",-1.3337044,-0.4609125499999988,9.58109705,"(8.999999999999999e-08, 0.0, 0.0, 0.0, 8.999999999999999e-08, 0.0, 0.0, 0.0, 8.999999999999999e-08)"
2025/07/05/17:49:44.051159,10402,1751712584,60147008,base_link,-0.0074464100091654,-0.06668174011485549,0.05627885275772098,-0.9961580131914339,"(1.0, 0.0, 0.0, 0.0, 1.0, 0.0, 0.0, 0.0, 1.0)",0.230034738779068,0.00011721183545891438,0.3240066468715668,"(1.2184696791468346e-07, 0.0, 0.0, 0.0, 1.2184696791468346e-07, 0.0, 0.0, 0.0, 1.2184696791468346e-07)",-1.34351105,-0.08825984999999882,9.65955025,"(8.999999999999999e-08, 0.0, 0.0, 0.0, 8.999999999999999e-08, 0.0, 0.0, 0.0, 8.999999999999999e-08)"
2025/07/05/17:49:44.150471,10403,1751712584,160147008,base_link,-0.01621706461638629,-0.06596330517524762,0.041780163115101736,-0.9968150616617211,"(1.0, 0.0, 0.0, 0.0, 1.0, 0.0, 0.0, 0.0, 1.0)",0.1623331755399704,-0.0047452789731323355,0.298830509185791,"(1.2184696791468346e-07, 0.0, 0.0, 0.0, 1.2184696791468346e-07, 0.0, 0.0, 0.0, 1.2184696791468346e-07)",-1.3140911,0.1961330000000012,9.639936950000001,"(8.999999999999999e-08, 0.0, 0.0, 0.0, 8.999999999999999e-08, 0.0, 0.0, 0.0, 8.999999999999999e-08)"
2025/07/05/17:49:44.250188,10404,1751712584,260147008,base_link,-0.02627962780300371,-0.06576861663465498,0.03427660063597542,-0.996899686466668,"(1.0, 0.0, 0.0, 0.0, 1.0, 0.0, 0.0, 0.0, 1.0)",0.17676638066768646,0.0016230588080361691,0.16848573088645935,"(1.2184696791468346e-07, 0.0, 0.0, 0.0, 1.2184696791468346e-07, 0.0, 0.0, 0.0, 1.2184696791468346e-07)",-1.26505785,0.9022118000000012,9.73800345,"(8.999999999999999e-08, 0.0, 0.0, 0.0, 8.999999999999999e-08, 0.0, 0.0, 0.0, 8.999999999999999e-08)"
2025/07/05/17:49:44.330639,10405,1751712584,340147008,base_link,-0.03786686674011682,-0.06642767390196001,0.035624757408004075,-0.9964358189080127,"(1.0, 0.0, 0.0, 0.0, 1.0, 0.0, 0.0, 0.0, 1.0)",0.28278693556785583,0.019502190873026848,0.005563945509493348,"(1.2184696791468346e-07, 0.0, 0.0, 0.0, 1.2184696791468346e-07, 0.0, 0.0, 0.0, 1.2184696791468346e-07)",-1.4317709,1.931910050000001,9.79684335,"(8.999999999999999e-08, 0.0, 0.0, 0.0, 8.999999999999999e-08, 0.0, 0.0, 0.0, 8.999999999999999e-08)"
2025/07/05/17:49:44.470845,10406,1751712584,480147008,base_link,-0.04570427730644966,-0.06747068353220374,0.04698454439084664,-0.9955658082155979,"(1.0, 0.0, 0.0, 0.0, 1.0, 0.0, 0.0, 0.0, 1.0)",0.10992583632469177,0.011898523196578003,-0.18581590056419373,"(1.2184696791468346e-07, 0.0, 0.0, 0.0, 1.2184696791468346e-07, 0.0, 0.0, 0.0, 1.2184696791468346e-07)",-1.38273765,0.7943386500000011,9.6497436,"(8.999999999999999e-08, 0.0, 0.0, 0.0, 8.999999999999999e-08, 0.0, 0.0, 0.0, 8.999999999999999e-08)"
2025/07/05/17:49:44.591770,10407,1751712584,601147008,base_link,-0.037145042663466896,-0.06758214719826164,0.06265189677959643,-0.9950515760580054,"(1.0, 0.0, 0.0, 0.0, 1.0, 0.0, 0.0, 0.0, 1.0)",-0.13151682913303375,-0.018058851361274754,-0.2846190631389618,"(1.2184696791468346e-07, 0.0, 0.0, 0.0, 1.2184696791468346e-07, 0.0, 0.0, 0.0, 1.2184696791468346e-07)",-1.46119085,1.068924850000001,9.5712904,"(8.999999999999999e-08, 0.0, 0.0, 0.0, 8.999999999999999e-08, 0.0, 0.0, 0.0, 8.999999999999999e-08)"
2025/07/05/17:49:44.670511,10408,1751712584,680147008,base_link,-0.028562064415105236,-0.06728030982249433,0.07467899010604795,-0.9945253223640298,"(1.0, 0.0, 0.0, 0.0, 1.0, 0.0, 0.0, 0.0, 1.0)",-0.18953336775302887,-0.028975073248148003,-0.32446715235710144,"(1.2184696791468346e-07, 0.0, 0.0, 0.0, 1.2184696791468346e-07, 0.0, 0.0, 0.0, 1.2184696791468346e-07)",-1.42196425,0.5393657500000012,9.5909037,"(8.999999999999999e-08, 0.0, 0.0, 0.0, 8.999999999999999e-08, 0.0, 0.0, 0.0, 8.999999999999999e-08)"
2025/07/05/17:49:44.771650,10409,1751712584,780147008,base_link,-0.016187438679985122,-0.06644224840739307,0.08744162201391259,-0.9938195798006436,"(1.0, 0.0, 0.0, 0.0, 1.0, 0.0, 0.0, 0.0, 1.0)",-0.2202666997909546,-0.041110347956419026,-0.2922945022583008,"(1.2184696791468346e-07, 0.0, 0.0, 0.0, 1.2184696791468346e-07, 0.0, 0.0, 0.0, 1.2184696791468346e-07)",-1.32389775,0.04903325000000117,9.62032365,"(8.999999999999999e-08, 0.0, 0.0, 0.0, 8.999999999999999e-08, 0.0, 0.0, 0.0, 8.999999999999999e-08)"
2025/07/05/17:49:44.852288,10410,1751712584,860147008,base_link,-0.003802920792605068,-0.0658918693768561,0.09212574127936168,-0.993557571123685,"(1.0, 0.0, 0.0, 0.0, 1.0, 0.0, 0.0, 0.0, 1.0)",-0.27298611402511597,-0.043780606240034124,-0.18245908617973328,"(1.2184696791468346e-07, 0.0, 0.0, 0.0, 1.2184696791468346e-07, 0.0, 0.0, 0.0, 1.2184696791468346e-07)",-1.18660465,-0.7551120499999987,9.69877685,"(8.999999999999999e-08, 0.0, 0.0, 0.0, 8.999999999999999e-08, 0.0, 0.0, 0.0, 8.999999999999999e-08)"
2025/07/05/17:49:44.970844,10411,1751712584,980147008,base_link,0.021474926987648784,-0.06740251201245458,0.08447942595240343,-0.9939109394085761,"(1.0, 0.0, 0.0, 0.0, 1.0, 0.0, 0.0, 0.0, 1.0)",-0.437721848487854,-0.01467621140182017,0.09431323409080505,"(1.2184696791468346e-07, 0.0, 0.0, 0.0, 1.2184696791468346e-07, 0.0, 0.0, 0.0, 1.2184696791468346e-07)",-1.4121576,-1.6279038999999988,9.77723005,"(8.999999999999999e-08, 0.0, 0.0, 0.0, 8.999999999999999e-08, 0.0, 0.0, 0.0, 8.999999999999999e-08)"
2025/07/05/17:49:45.051959,10412,1751712585,60147008,base_link,0.025566724419581275,-0.06835722474591717,0.075922838203272,-0.9944392163760686,"(1.0, 0.0, 0.0, 0.0, 1.0, 0.0, 0.0, 0.0, 1.0)",-0.20448175072669983,0.006662834435701393,0.1869419366121292,"(1.2184696791468346e-07, 0.0, 0.0, 0.0, 1.2184696791468346e-07, 0.0, 0.0, 0.0, 1.2184696791468346e-07)",-1.3533177,-0.6178189499999989,9.6889702,"(8.999999999999999e-08, 0.0, 0.0, 0.0, 8.999999999999999e-08, 0.0, 0.0, 0.0, 8.999999999999999e-08)"
2025/07/05/17:49:45.150414,10413,1751712585,160147008,base_link,0.014596783048824521,-0.06864539837642059,0.0619628284648378,-0.9956080308509996,"(1.0, 0.0, 0.0, 0.0, 1.0, 0.0, 0.0, 0.0, 1.0)",0.1808125525712967,0.010823509655892884,0.2789299488067627,"(1.2184696791468346e-07, 0.0, 0.0, 0.0, 1.2184696791468346e-07, 0.0, 0.0, 0.0, 1.2184696791468346e-07)",-1.3337044,-0.6472388999999988,9.551677100000001,"(8.999999999999999e-08, 0.0, 0.0, 0.0, 8.999999999999999e-08, 0.0, 0.0, 0.0, 8.999999999999999e-08)"
2025/07/05/17:49:45.250180,10414,1751712585,260147008,base_link,-0.004445999561080835,-0.0680941604319205,0.04564772172332159,-0.9966241537833832,"(1.0, 0.0, 0.0, 0.0, 1.0, 0.0, 0.0, 0.0, 1.0)",0.36476191878318787,0.006730125285685104,0.3411371111869812,"(1.2184696791468346e-07, 0.0, 0.0, 0.0, 1.2184696791468346e-07, 0.0, 0.0, 0.0, 1.2184696791468346e-07)",-1.32389775,-0.33342609999999884,9.6497436,"(8.999999999999999e-08, 0.0, 0.0, 0.0, 8.999999999999999e-08, 0.0, 0.0, 0.0, 8.999999999999999e-08)"
2025/07/05/17:49:45.350688,10415,1751712585,360147008,base_link,-0.018661903786252185,-0.06748902185382125,0.02890046355462583,-0.997126736419506,"(1.0, 0.0, 0.0, 0.0, 1.0, 0.0, 0.0, 0.0, 1.0)",0.28197383880615234,-0.0009532975964247754,0.34819310903549194,"(1.2184696791468346e-07, 0.0, 0.0, 0.0, 1.2184696791468346e-07, 0.0, 0.0, 0.0, 1.2184696791468346e-07)",-1.3925443,1.1817527612332657e-15,9.6497436,"(8.999999999999999e-08, 0.0, 0.0, 0.0, 8.999999999999999e-08, 0.0, 0.0, 0.0, 8.999999999999999e-08)"
2025/07/05/17:49:45.531042,10416,1751712585,540147008,base_link,-0.038112546431301346,-0.06758239222161061,0.016650482777465277,-0.9968464352594151,"(1.0, 0.0, 0.0, 0.0, 1.0, 0.0, 0.0, 0.0, 1.0)",0.24504375457763672,0.012461478821933278,0.06655290722846985,"(1.2184696791468346e-07, 0.0, 0.0, 0.0, 1.2184696791468346e-07, 0.0, 0.0, 0.0, 1.2184696791468346e-07)",-1.22583125,0.9316317500000011,9.6497436,"(8.999999999999999e-08, 0.0, 0.0, 0.0, 8.999999999999999e-08, 0.0, 0.0, 0.0, 8.999999999999999e-08)"
2025/07/05/17:49:45.633559,10417,1751712585,643147008,base_link,-0.04581700288562845,-0.06884701414672628,0.02228697752116465,-0.9963253391953002,"(1.0, 0.0, 0.0, 0.0, 1.0, 0.0, 0.0, 0.0, 1.0)",0.18497596681118011,0.02331791818141936,-0.10810840129852295,"(1.2184696791468346e-07, 0.0, 0.0, 0.0, 1.2184696791468346e-07, 0.0, 0.0, 0.0, 1.2184696791468346e-07)",-1.32389775,0.7354987500000011,9.5712904,"(8.999999999999999e-08, 0.0, 0.0, 0.0, 8.999999999999999e-08, 0.0, 0.0, 0.0, 8.999999999999999e-08)"
2025/07/05/17:49:45.730676,10418,1751712585,740147008,base_link,-0.044260253811384494,-0.06959824832177855,0.03370916357429043,-0.9960224927451256,"(1.0, 0.0, 0.0, 0.0, 1.0, 0.0, 0.0, 0.0, 1.0)",0.004148597829043865,0.007689541205763788,-0.23694923520088196,"(1.2184696791468346e-07, 0.0, 0.0, 0.0, 1.2184696791468346e-07, 0.0, 0.0, 0.0, 1.2184696791468346e-07)",-1.42196425,0.8041453000000012,9.5124505,"(8.999999999999999e-08, 0.0, 0.0, 0.0, 8.999999999999999e-08, 0.0, 0.0, 0.0, 8.999999999999999e-08)"
2025/07/05/17:49:45.833593,10419,1751712585,843147008,base_link,-0.033875083808445526,-0.06933909959895883,0.04831192104317266,-0.9958466379161476,"(1.0, 0.0, 0.0, 0.0, 1.0, 0.0, 0.0, 0.0, 1.0)",-0.17839178442955017,-0.022880507633090057,-0.3142959773540497,"(1.2184696791468346e-07, 0.0, 0.0, 0.0, 1.2184696791468346e-07, 0.0, 0.0, 0.0, 1.2184696791468346e-07)",-1.40235095,0.7354987500000011,9.551677100000001,"(8.999999999999999e-08, 0.0, 0.0, 0.0, 8.999999999999999e-08, 0.0, 0.0, 0.0, 8.999999999999999e-08)"
2025/07/05/17:49:45.930195,10420,1751712585,940147008,base_link,-0.021339611093049726,-0.06818063845540953,0.06398764415220382,-0.9953901762294326,"(1.0, 0.0, 0.0, 0.0, 1.0, 0.0, 0.0, 0.0, 1.0)",-0.22959421575069427,-0.043778616935014766,-0.34228262305259705,"(1.2184696791468346e-07, 0.0, 0.0, 0.0, 1.2184696791468346e-07, 0.0, 0.0, 0.0, 1.2184696791468346e-07)",-1.3925443,0.5785923500000012,9.5909037,"(8.999999999999999e-08, 0.0, 0.0, 0.0, 8.999999999999999e-08, 0.0, 0.0, 0.0, 8.999999999999999e-08)"
2025/07/05/17:49:46.033205,10421,1751712586,43147008,base_link,-0.011938737542701963,-0.06645969132854906,0.07816679249957365,-0.9946509581379436,"(1.0, 0.0, 0.0, 0.0, 1.0, 0.0, 0.0, 0.0, 1.0)",-0.17106376588344574,-0.049888830631971394,-0.3110804557800293,"(1.2184696791468346e-07, 0.0, 0.0, 0.0, 1.2184696791468346e-07, 0.0, 0.0, 0.0, 1.2184696791468346e-07)",-1.2944778000000001,0.009806650000001187,9.6889702,"(8.999999999999999e-08, 0.0, 0.0, 0.0, 8.999999999999999e-08, 0.0, 0.0, 0.0, 8.999999999999999e-08)"
2025/07/05/17:49:46.131739,10422,1751712586,140147008,base_link,-0.006518915158859594,-0.06519580685679463,0.08818653665804449,-0.9939467517255149,"(1.0, 0.0, 0.0, 0.0, 1.0, 0.0, 0.0, 0.0, 1.0)",-0.09310899674892426,-0.03597588464617732,-0.22598867118358612,"(1.2184696791468346e-07, 0.0, 0.0, 0.0, 1.2184696791468346e-07, 0.0, 0.0, 0.0, 1.2184696791468346e-07)",-1.30428445,-0.31381279999999884,9.73800345,"(8.999999999999999e-08, 0.0, 0.0, 0.0, 8.999999999999999e-08, 0.0, 0.0, 0.0, 8.999999999999999e-08)"
2025/07/05/17:49:46.233939,10423,1751712586,243147008,base_link,0.0018987207486948889,-0.06548587182303656,0.09069028503829757,-0.9937219267233504,"(1.0, 0.0, 0.0, 0.0, 1.0, 0.0, 0.0, 0.0, 1.0)",-0.1457582712173462,-0.012110748328268538,-0.0864182859659195,"(1.2184696791468346e-07, 0.0, 0.0, 0.0, 1.2184696791468346e-07, 0.0, 0.0, 0.0, 1.2184696791468346e-07)",-1.26505785,-0.5099457999999988,9.75761675,"(8.999999999999999e-08, 0.0, 0.0, 0.0, 8.999999999999999e-08, 0.0, 0.0, 0.0, 8.999999999999999e-08)"
2025/07/05/17:49:46.331151,10424,1751712586,340147008,base_link,0.015711081449320367,-0.06748440883875251,0.08306282447317798,-0.9941325785195427,"(1.0, 0.0, 0.0, 0.0, 1.0, 0.0, 0.0, 0.0, 1.0)",-0.29482439160346985,0.013123900629580035,0.11441179364919662,"(1.2184696791468346e-07, 0.0, 0.0, 0.0, 1.2184696791468346e-07, 0.0, 0.0, 0.0, 1.2184696791468346e-07)",-1.3925443,-1.510224099999999,9.73800345,"(8.999999999999999e-08, 0.0, 0.0, 0.0, 8.999999999999999e-08, 0.0, 0.0, 0.0, 8.999999999999999e-08)"
2025/07/05/17:49:46.492696,10425,1751712586,502147008,base_link,0.013482144909414314,-0.06933788256063332,0.06275239597112153,-0.9955263063377748,"(1.0, 0.0, 0.0, 0.0, 1.0, 0.0, 0.0, 0.0, 1.0)",0.06952982395887375,0.016951177269220383,0.26597926020622253,"(1.2184696791468346e-07, 0.0, 0.0, 0.0, 1.2184696791468346e-07, 0.0, 0.0, 0.0, 1.2184696791468346e-07)",-1.3533177,-0.6962721499999989,9.6301303,"(8.999999999999999e-08, 0.0, 0.0, 0.0, 8.999999999999999e-08, 0.0, 0.0, 0.0, 8.999999999999999e-08)"
2025/07/05/17:49:46.613924,10426,1751712586,624147008,base_link,-0.002284051977147873,-0.06888916001269912,0.04369361464429799,-0.9966644042899424,"(1.0, 0.0, 0.0, 0.0, 1.0, 0.0, 0.0, 0.0, 1.0)",0.2520582675933838,-0.0007518909405916526,0.32897046208381653,"(1.2184696791468346e-07, 0.0, 0.0, 0.0, 1.2184696791468346e-07, 0.0, 0.0, 0.0, 1.2184696791468346e-07)",-1.3337044,-0.29419949999999884,9.639936950000001,"(8.999999999999999e-08, 0.0, 0.0, 0.0, 8.999999999999999e-08, 0.0, 0.0, 0.0, 8.999999999999999e-08)"
2025/07/05/17:49:46.710750,10427,1751712586,721147008,base_link,-0.012383057270331588,-0.06759068881606048,0.026643435217911512,-0.9972804450292801,"(1.0, 0.0, 0.0, 0.0, 1.0, 0.0, 0.0, 0.0, 1.0)",0.19446143507957458,-0.019657608121633488,0.3463529944419861,"(1.2184696791468346e-07, 0.0, 0.0, 0.0, 1.2184696791468346e-07, 0.0, 0.0, 0.0, 1.2184696791468346e-07)",-1.3533177,1.1781498564734082e-15,9.62032365,"(8.999999999999999e-08, 0.0, 0.0, 0.0, 8.999999999999999e-08, 0.0, 0.0, 0.0, 8.999999999999999e-08)"
2025/07/05/17:49:46.791589,10428,1751712586,801147008,base_link,-0.01664131927948209,-0.06685770865508557,0.014427298023807152,-0.997519406506842,"(1.0, 0.0, 0.0, 0.0, 1.0, 0.0, 0.0, 0.0, 1.0)",0.09852779656648636,-0.01773325726389881,0.31818830966949463,"(1.2184696791468346e-07, 0.0, 0.0, 0.0, 1.2184696791468346e-07, 0.0, 0.0, 0.0, 1.2184696791468346e-07)",-1.28467115,0.39226600000000117,9.73800345,"(8.999999999999999e-08, 0.0, 0.0, 0.0, 8.999999999999999e-08, 0.0, 0.0, 0.0, 8.999999999999999e-08)"
2025/07/05/17:49:46.892874,10429,1751712586,902147008,base_link,-0.02240725240700314,-0.0669305838787773,0.004655174101761912,-0.9974951334895308,"(1.0, 0.0, 0.0, 0.0, 1.0, 0.0, 0.0, 0.0, 1.0)",0.08934187889099121,0.0020952553022653116,0.20497873425483704,"(1.2184696791468346e-07, 0.0, 0.0, 0.0, 1.2184696791468346e-07, 0.0, 0.0, 0.0, 1.2184696791468346e-07)",-1.2356379,0.9022118000000012,9.73800345,"(8.999999999999999e-08, 0.0, 0.0, 0.0, 8.999999999999999e-08, 0.0, 0.0, 0.0, 8.999999999999999e-08)"
2025/07/05/17:49:46.991611,10430,1751712587,1147008,base_link,-0.032930763754864575,-0.0684438961024415,0.003435089321107361,-0.9971054096965855,"(1.0, 0.0, 0.0, 0.0, 1.0, 0.0, 0.0, 0.0, 1.0)",0.20588834583759308,0.029622079804539684,0.039878502488136285,"(1.2184696791468346e-07, 0.0, 0.0, 0.0, 1.2184696791468346e-07, 0.0, 0.0, 0.0, 1.2184696791468346e-07)",-1.4121576,1.382737650000001,9.7281968,"(8.999999999999999e-08, 0.0, 0.0, 0.0, 8.999999999999999e-08, 0.0, 0.0, 0.0, 8.999999999999999e-08)"
2025/07/05/17:49:47.070521,10431,1751712587,80147008,base_link,-0.038465742963551854,-0.06959660592254095,0.006340834914659306,-0.996813168489918,"(1.0, 0.0, 0.0, 0.0, 1.0, 0.0, 0.0, 0.0, 1.0)",0.17210432887077332,0.03226839378476142,-0.05915618687868119,"(1.2184696791468346e-07, 0.0, 0.0, 0.0, 1.2184696791468346e-07, 0.0, 0.0, 0.0, 1.2184696791468346e-07)",-1.38273765,1.1179581000000012,9.6301303,"(8.999999999999999e-08, 0.0, 0.0, 0.0, 8.999999999999999e-08, 0.0, 0.0, 0.0, 8.999999999999999e-08)"
2025/07/05/17:49:47.173354,10432,1751712587,180147008,base_link,-0.03875991159882649,-0.07031450346823814,0.014324441513793248,-0.9966686260890247,"(1.0, 0.0, 0.0, 0.0, 1.0, 0.0, 0.0, 0.0, 1.0)",0.0272691510617733,0.010885001160204391,-0.16172106564044952,"(1.2184696791468346e-07, 0.0, 0.0, 0.0, 1.2184696791468346e-07, 0.0, 0.0, 0.0, 1.2184696791468346e-07)",-1.3925443,1.078731500000001,9.60071035,"(8.999999999999999e-08, 0.0, 0.0, 0.0, 8.999999999999999e-08, 0.0, 0.0, 0.0, 8.999999999999999e-08)"
2025/07/05/17:49:47.251409,10433,1751712587,260147008,base_link,-0.03412635624325361,-0.06994288551486788,0.02347113299416192,-0.9966907697432454,"(1.0, 0.0, 0.0, 0.0, 1.0, 0.0, 0.0, 0.0, 1.0)",-0.07398374378681183,-0.013176716864109069,-0.2369067519903183,"(1.2184696791468346e-07, 0.0, 0.0, 0.0, 1.2184696791468346e-07, 0.0, 0.0, 0.0, 1.2184696791468346e-07)",-1.4121576,1.0296982500000011,9.5909037,"(8.999999999999999e-08, 0.0, 0.0, 0.0, 8.999999999999999e-08, 0.0, 0.0, 0.0, 8.999999999999999e-08)"
2025/07/05/17:49:47.350273,10434,1751712587,360147008,base_link,-0.02327118099880053,-0.06839215650912145,0.03560560728406447,-0.9967513259549174,"(1.0, 0.0, 0.0, 0.0, 1.0, 0.0, 0.0, 0.0, 1.0)",-0.19648203253746033,-0.042808674275875126,-0.2665588855743408,"(1.2184696791468346e-07, 0.0, 0.0, 0.0, 1.2184696791468346e-07, 0.0, 0.0, 0.0, 1.2184696791468346e-07)",-1.36312435,0.4020726500000012,9.58109705,"(8.999999999999999e-08, 0.0, 0.0, 0.0, 8.999999999999999e-08, 0.0, 0.0, 0.0, 8.999999999999999e-08)"
2025/07/05/17:49:47.570926,10435,1751712587,580147008,base_link,-0.012835325151124807,-0.06632374565147017,0.06376674739545501,-0.9956757590288257,"(1.0, 0.0, 0.0, 0.0, 1.0, 0.0, 0.0, 0.0, 1.0)",-0.006995894014835358,-0.012647844851017031,-0.2677055299282074,"(1.2184696791468346e-07, 0.0, 0.0, 0.0, 1.2184696791468346e-07, 0.0, 0.0, 0.0, 1.2184696791468346e-07)",-1.2552512,0.2451662500000012,9.7478101,"(8.999999999999999e-08, 0.0, 0.0, 0.0, 8.999999999999999e-08, 0.0, 0.0, 0.0, 8.999999999999999e-08)"
2025/07/05/17:49:47.650978,10436,1751712587,660147008,base_link,-0.016270543858163605,-0.06591915112999666,0.07399288278727628,-0.9949447161594903,"(1.0, 0.0, 0.0, 0.0, 1.0, 0.0, 0.0, 0.0, 1.0)",0.08733025938272476,-0.006625243462622198,-0.2596830725669861,"(1.2184696791468346e-07, 0.0, 0.0, 0.0, 1.2184696791468346e-07, 0.0, 0.0, 0.0, 1.2184696791468346e-07)",-1.1179581,0.08825985000000118,9.6889702,"(8.999999999999999e-08, 0.0, 0.0, 0.0, 8.999999999999999e-08, 0.0, 0.0, 0.0, 8.999999999999999e-08)"
2025/07/05/17:49:47.750172,10437,1751712587,760147008,base_link,-0.021296249839508896,-0.06491597969537623,0.08677541164227554,-0.9938824946930478,"(1.0, 0.0, 0.0, 0.0, 1.0, 0.0, 0.0, 0.0, 1.0)",0.12564727663993835,-0.01283656619489196,-0.2545732259750366,"(1.2184696791468346e-07, 0.0, 0.0, 0.0, 1.2184696791468346e-07, 0.0, 0.0, 0.0, 1.2184696791468346e-07)",-1.08853815,0.09806650000000118,9.6889702,"(8.999999999999999e-08, 0.0, 0.0, 0.0, 8.999999999999999e-08, 0.0, 0.0, 0.0, 8.999999999999999e-08)"
2025/07/05/17:49:47.851870,10438,1751712587,860147008,base_link,-0.023492153819037822,-0.0639274149592522,0.09957381346724126,-0.9926965598797859,"(1.0, 0.0, 0.0, 0.0, 1.0, 0.0, 0.0, 0.0, 1.0)",0.07142776250839233,-0.01924617774784568,-0.2598942518234253,"(1.2184696791468346e-07, 0.0, 0.0, 0.0, 1.2184696791468346e-07, 0.0, 0.0, 0.0, 1.2184696791468346e-07)",-1.10815145,0.07845320000000118,9.69877685,"(8.999999999999999e-08, 0.0, 0.0, 0.0, 8.999999999999999e-08, 0.0, 0.0, 0.0, 8.999999999999999e-08)"
2025/07/05/17:49:47.970583,10439,1751712587,980147008,base_link,-0.021541917903099925,-0.06296519106706745,0.11436357691690452,-0.99120749732925,"(1.0, 0.0, 0.0, 0.0, 1.0, 0.0, 0.0, 0.0, 1.0)",-0.012165350839495659,-0.021557925269007714,-0.25903502106666565,"(1.2184696791468346e-07, 0.0, 0.0, 0.0, 1.2184696791468346e-07, 0.0, 0.0, 0.0, 1.2184696791468346e-07)",-1.06892485,1.187757602499695e-15,9.69877685,"(8.999999999999999e-08, 0.0, 0.0, 0.0, 8.999999999999999e-08, 0.0, 0.0, 0.0, 8.999999999999999e-08)"
2025/07/05/17:49:48.073267,10440,1751712588,80147008,base_link,-0.018624452696076182,-0.06241055205659313,0.1268237263013362,-0.9897847216444629,"(1.0, 0.0, 0.0, 0.0, 1.0, 0.0, 0.0, 0.0, 1.0)",-0.0473981574177742,-0.019460586830973656,-0.25981491804122925,"(1.2184696791468346e-07, 0.0, 0.0, 0.0, 1.2184696791468346e-07, 0.0, 0.0, 0.0, 1.2184696791468346e-07)",-0.95124505,-0.08825984999999882,9.71839015,"(8.999999999999999e-08, 0.0, 0.0, 0.0, 8.999999999999999e-08, 0.0, 0.0, 0.0, 8.999999999999999e-08)"
2025/07/05/17:49:48.171683,10441,1751712588,180147008,base_link,-0.01505070598402535,-0.06216046192219137,0.13868126325659103,-0.9882697306123254,"(1.0, 0.0, 0.0, 0.0, 1.0, 0.0, 0.0, 0.0, 1.0)",-0.04579377546906471,-0.01627178490161899,-0.25648340582847595,"(1.2184696791468346e-07, 0.0, 0.0, 0.0, 1.2184696791468346e-07, 0.0, 0.0, 0.0, 1.2184696791468346e-07)",-1.01008495,-0.019613299999998814,9.6889702,"(8.999999999999999e-08, 0.0, 0.0, 0.0, 8.999999999999999e-08, 0.0, 0.0, 0.0, 8.999999999999999e-08)"
2025/07/05/17:49:48.251166,10442,1751712588,260147008,base_link,-0.013552727703142439,-0.061608376886987906,0.14762690773104203,-0.9870293955009272,"(1.0, 0.0, 0.0, 0.0, 1.0, 0.0, 0.0, 0.0, 1.0)",-0.030802663415670395,-0.0157518703490496,-0.24228225648403168,"(1.2184696791468346e-07, 0.0, 0.0, 0.0, 1.2184696791468346e-07, 0.0, 0.0, 0.0, 1.2184696791468346e-07)",-1.06892485,-0.2451662499999988,9.7478101,"(8.999999999999999e-08, 0.0, 0.0, 0.0, 8.999999999999999e-08, 0.0, 0.0, 0.0, 8.999999999999999e-08)"
2025/07/05/17:49:48.350349,10443,1751712588,360147008,base_link,-0.012116174563578807,-0.060992706086677256,0.1573135927100166,-0.9855889212378739,"(1.0, 0.0, 0.0, 0.0, 1.0, 0.0, 0.0, 0.0, 1.0)",-0.014727067202329636,-0.013657873496413257,-0.2140650749206543,"(1.2184696791468346e-07, 0.0, 0.0, 0.0, 1.2184696791468346e-07, 0.0, 0.0, 0.0, 1.2184696791468346e-07)",-1.08853815,-0.29419949999999884,9.73800345,"(8.999999999999999e-08, 0.0, 0.0, 0.0, 8.999999999999999e-08, 0.0, 0.0, 0.0, 8.999999999999999e-08)"
2025/07/05/17:49:48.530391,10444,1751712588,540147008,base_link,-0.004260357480121278,-0.0620280544330254,0.16605555168614733,-0.9841544205924212,"(1.0, 0.0, 0.0, 0.0, 1.0, 0.0, 0.0, 0.0, 1.0)",-0.10215914994478226,-0.00010986556299031876,-0.08943868428468704,"(1.2184696791468346e-07, 0.0, 0.0, 0.0, 1.2184696791468346e-07, 0.0, 0.0, 0.0, 1.2184696791468346e-07)",-1.02969825,-0.35303939999999884,9.7281968,"(8.999999999999999e-08, 0.0, 0.0, 0.0, 8.999999999999999e-08, 0.0, 0.0, 0.0, 8.999999999999999e-08)"
2025/07/05/17:49:48.634325,10445,1751712588,643147008,base_link,0.014647163350424113,-0.06594602279298208,0.15715475551555447,-0.985260861651583,"(1.0, 0.0, 0.0, 0.0, 1.0, 0.0, 0.0, 0.0, 1.0)",-0.38674280047416687,0.012724966742098347,0.12600065767765045,"(1.2184696791468346e-07, 0.0, 0.0, 0.0, 1.2184696791468346e-07, 0.0, 0.0, 0.0, 1.2184696791468346e-07)",-0.99047165,-1.912296749999999,9.8262633,"(8.999999999999999e-08, 0.0, 0.0, 0.0, 8.999999999999999e-08, 0.0, 0.0, 0.0, 8.999999999999999e-08)"
2025/07/05/17:49:48.730617,10446,1751712588,740147008,base_link,0.026801053095028,-0.06842617164669233,0.14166776301476386,-0.9871827629720688,"(1.0, 0.0, 0.0, 0.0, 1.0, 0.0, 0.0, 0.0, 1.0)",-0.301070898771286,0.007906986400485073,0.2794712483882904,"(1.2184696791468346e-07, 0.0, 0.0, 0.0, 1.2184696791468346e-07, 0.0, 0.0, 0.0, 1.2184696791468346e-07)",-1.20621795,-0.9806649999999989,9.639936950000001,"(8.999999999999999e-08, 0.0, 0.0, 0.0, 8.999999999999999e-08, 0.0, 0.0, 0.0, 8.999999999999999e-08)"
2025/07/05/17:49:48.833713,10447,1751712588,843147008,base_link,0.02276291014976104,-0.06791737782324256,0.12258714513537883,-0.9898694214686534,"(1.0, 0.0, 0.0, 0.0, 1.0, 0.0, 0.0, 0.0, 1.0)",0.032319530844688416,-0.017649939283728554,0.3731015622615814,"(1.2184696791468346e-07, 0.0, 0.0, 0.0, 1.2184696791468346e-07, 0.0, 0.0, 0.0, 1.2184696791468346e-07)",-1.14737805,-0.7551120499999989,9.5712904,"(8.999999999999999e-08, 0.0, 0.0, 0.0, 8.999999999999999e-08, 0.0, 0.0, 0.0, 8.999999999999999e-08)"
2025/07/05/17:49:48.930639,10448,1751712588,940147008,base_link,0.008380640279515935,-0.06522936243365779,0.1010225105299829,-0.9927080877635799,"(1.0, 0.0, 0.0, 0.0, 1.0, 0.0, 0.0, 0.0, 1.0)",0.26077577471733093,-0.03253046423196787,0.43793487548828125,"(1.2184696791468346e-07, 0.0, 0.0, 0.0, 1.2184696791468346e-07, 0.0, 0.0, 0.0, 1.2184696791468346e-07)",-1.01008495,-0.6570455499999988,9.69877685,"(8.999999999999999e-08, 0.0, 0.0, 0.0, 8.999999999999999e-08, 0.0, 0.0, 0.0, 8.999999999999999e-08)"
2025/07/05/17:49:49.033843,10449,1751712589,43147008,base_link,-0.005700244358635384,-0.06278848429951699,0.0783189126262005,-0.9949327923928686,"(1.0, 0.0, 0.0, 0.0, 1.0, 0.0, 0.0, 0.0, 1.0)",0.27284735441207886,-0.030249366536736433,0.46653759479522705,"(1.2184696791468346e-07, 0.0, 0.0, 0.0, 1.2184696791468346e-07, 0.0, 0.0, 0.0, 1.2184696791468346e-07)",-1.1571847,-0.27458619999999884,9.65955025,"(8.999999999999999e-08, 0.0, 0.0, 0.0, 8.999999999999999e-08, 0.0, 0.0, 0.0, 8.999999999999999e-08)"
2025/07/05/17:49:49.131939,10450,1751712589,140147008,base_link,-0.013660587802496906,-0.06135486583238081,0.055270458321816644,-0.9964909157721795,"(1.0, 0.0, 0.0, 0.0, 1.0, 0.0, 0.0, 0.0, 1.0)",0.1502385139465332,-0.01686642132699484,0.45990049839019775,"(1.2184696791468346e-07, 0.0, 0.0, 0.0, 1.2184696791468346e-07, 0.0, 0.0, 0.0, 1.2184696791468346e-07)",-1.0198916,0.1274864500000012,9.6889702,"(8.999999999999999e-08, 0.0, 0.0, 0.0, 8.999999999999999e-08, 0.0, 0.0, 0.0, 8.999999999999999e-08)"
2025/07/05/17:49:49.230165,10451,1751712589,240147008,base_link,-0.015095275127636873,-0.060751947311936366,0.03319767685152419,-0.9974864649799967,"(1.0, 0.0, 0.0, 0.0, 1.0, 0.0, 0.0, 0.0, 1.0)",0.007468665950000286,-0.0045630745589732595,0.43364524841308594,"(1.2184696791468346e-07, 0.0, 0.0, 0.0, 1.2184696791468346e-07, 0.0, 0.0, 0.0, 1.2184696791468346e-07)",-1.0983448,0.49033250000000117,9.7085835,"(8.999999999999999e-08, 0.0, 0.0, 0.0, 8.999999999999999e-08, 0.0, 0.0, 0.0, 8.999999999999999e-08)"
2025/07/05/17:49:49.331083,10452,1751712589,340147008,base_link,-0.014736484733789487,-0.060743547818683095,0.013095775806824746,-0.9979586955741743,"(1.0, 0.0, 0.0, 0.0, 1.0, 0.0, 0.0, 0.0, 1.0)",-0.04136466234922409,0.0012104948982596883,0.39592278003692627,"(1.2184696791468346e-07, 0.0, 0.0, 0.0, 1.2184696791468346e-07, 0.0, 0.0, 0.0, 1.2184696791468346e-07)",-1.1571847,0.8139519500000013,9.73800345,"(8.999999999999999e-08, 0.0, 0.0, 0.0, 8.999999999999999e-08, 0.0, 0.0, 0.0, 8.999999999999999e-08)"
2025/07/05/17:49:49.512404,10453,1751712589,521147008,base_link,-0.04807286196443583,-0.06338159107712348,0.0027697576712726285,-0.9968270172389604,"(1.0, 0.0, 0.0, 0.0, 1.0, 0.0, 0.0, 0.0, 1.0)",0.5244483947753906,0.04482805728912354,0.0318864993751049,"(1.2184696791468346e-07, 0.0, 0.0, 0.0, 1.2184696791468346e-07, 0.0, 0.0, 0.0, 1.2184696791468346e-07)",-1.01008495,1.2846711500000012,9.7674234,"(8.999999999999999e-08, 0.0, 0.0, 0.0, 8.999999999999999e-08, 0.0, 0.0, 0.0, 8.999999999999999e-08)"
2025/07/05/17:49:49.611337,10454,1751712589,621147008,base_link,-0.0696924916704908,-0.06628686545029533,0.012787836519957237,-0.9952816080440108,"(1.0, 0.0, 0.0, 0.0, 1.0, 0.0, 0.0, 0.0, 1.0)",0.49391821026802063,0.057253312319517115,-0.17699943482875824,"(1.2184696791468346e-07, 0.0, 0.0, 0.0, 1.2184696791468346e-07, 0.0, 0.0, 0.0, 1.2184696791468346e-07)",-1.38273765,1.7553903500000012,9.5909037,"(8.999999999999999e-08, 0.0, 0.0, 0.0, 8.999999999999999e-08, 0.0, 0.0, 0.0, 8.999999999999999e-08)"
2025/07/05/17:49:49.692020,10455,1751712589,701147008,base_link,-0.07437077103772408,-0.06844016898276815,0.02616681331586784,-0.9945351826686459,"(1.0, 0.0, 0.0, 0.0, 1.0, 0.0, 0.0, 0.0, 1.0)",0.22540777921676636,0.0417312383651733,-0.31948792934417725,"(1.2184696791468346e-07, 0.0, 0.0, 0.0, 1.2184696791468346e-07, 0.0, 0.0, 0.0, 1.2184696791468346e-07)",-1.28467115,1.6573238500000012,9.610517,"(8.999999999999999e-08, 0.0, 0.0, 0.0, 8.999999999999999e-08, 0.0, 0.0, 0.0, 8.999999999999999e-08)"
2025/07/05/17:49:49.791918,10456,1751712589,801147008,base_link,-0.060739789422902854,-0.06804845534993409,0.04599867793366135,-0.9947684189466935,"(1.0, 0.0, 0.0, 0.0, 1.0, 0.0, 0.0, 0.0, 1.0)",-0.22015061974525452,-0.038839150220155765,-0.4219158887863159,"(1.2184696791468346e-07, 0.0, 0.0, 0.0, 1.2184696791468346e-07, 0.0, 0.0, 0.0, 1.2184696791468346e-07)",-1.2552512,1.304284450000001,9.2574776,"(8.999999999999999e-08, 0.0, 0.0, 0.0, 8.999999999999999e-08, 0.0, 0.0, 0.0, 8.999999999999999e-08)"
2025/07/05/17:49:49.873328,10457,1751712589,880147008,base_link,-0.04287068008386156,-0.06566320993071725,0.06359875353658856,-0.9948897658531493,"(1.0, 0.0, 0.0, 0.0, 1.0, 0.0, 0.0, 0.0, 1.0)",-0.4039158225059509,-0.0968585833907128,-0.471187025308609,"(1.2184696791468346e-07, 0.0, 0.0, 0.0, 1.2184696791468346e-07, 0.0, 0.0, 0.0, 1.2184696791468346e-07)",-1.3337044,0.8727918500000011,9.38496405,"(8.999999999999999e-08, 0.0, 0.0, 0.0, 8.999999999999999e-08, 0.0, 0.0, 0.0, 8.999999999999999e-08)"
2025/07/05/17:49:49.991489,10458,1751712590,1147008,base_link,-0.020219140132598862,-0.06187935780870164,0.09119250584291227,-0.9937032043460317,"(1.0, 0.0, 0.0, 0.0, 1.0, 0.0, 0.0, 0.0, 1.0)",-0.34432119131088257,-0.10591819137334829,-0.4955146908760071,"(1.2184696791468346e-07, 0.0, 0.0, 0.0, 1.2184696791468346e-07, 0.0, 0.0, 0.0, 1.2184696791468346e-07)",-1.24544455,0.39226600000000117,9.67916355,"(8.999999999999999e-08, 0.0, 0.0, 0.0, 8.999999999999999e-08, 0.0, 0.0, 0.0, 8.999999999999999e-08)"
2025/07/05/17:49:50.070262,10459,1751712590,80147008,base_link,-0.012059670261281285,-0.06016116794093133,0.10835132255798063,-0.9922173094262712,"(1.0, 0.0, 0.0, 0.0, 1.0, 0.0, 0.0, 0.0, 1.0)",-0.2008216232061386,-0.06991387158632284,-0.46468019485473633,"(1.2184696791468346e-07, 0.0, 0.0, 0.0, 1.2184696791468346e-07, 0.0, 0.0, 0.0, 1.2184696791468346e-07)",-1.1964113,-0.1569063999999988,9.81645665,"(8.999999999999999e-08, 0.0, 0.0, 0.0, 8.999999999999999e-08, 0.0, 0.0, 0.0, 8.999999999999999e-08)"
2025/07/05/17:49:50.171501,10460,1751712590,180147008,base_link,-0.010844244917437651,-0.05949491117078049,0.12845522525197095,-0.9898696949611181,"(1.0, 0.0, 0.0, 0.0, 1.0, 0.0, 0.0, 0.0, 1.0)",-0.006742911413311958,-0.0179447010159493,-0.417263925075531,"(1.2184696791468346e-07, 0.0, 0.0, 0.0, 1.2184696791468346e-07, 0.0, 0.0, 0.0, 1.2184696791468346e-07)",-1.2160246,-0.4216859499999988,9.73800345,"(8.999999999999999e-08, 0.0, 0.0, 0.0, 8.999999999999999e-08, 0.0, 0.0, 0.0, 8.999999999999999e-08)"
2025/07/05/17:49:50.251454,10461,1751712590,260147008,base_link,-0.012705276866198429,-0.059518093205622395,0.1424700650491572,-0.9879263399089069,"(1.0, 0.0, 0.0, 0.0, 1.0, 0.0, 0.0, 0.0, 1.0)",0.07178429514169693,0.007866483181714966,-0.3723364472389221,"(1.2184696791468346e-07, 0.0, 0.0, 0.0, 1.2184696791468346e-07, 0.0, 0.0, 0.0, 1.2184696791468346e-07)",-1.20621795,-0.5197524499999988,9.7478101,"(8.999999999999999e-08, 0.0, 0.0, 0.0, 8.999999999999999e-08, 0.0, 0.0, 0.0, 8.999999999999999e-08)"
2025/07/05/17:49:50.330157,10462,1751712590,340147008,base_link,-0.011224032714928266,-0.05973361228886231,0.15271780855064476,-0.9863991015831404,"(1.0, 0.0, 0.0, 0.0, 1.0, 0.0, 0.0, 0.0, 1.0)",0.017681635916233063,0.008670236915349924,-0.2958679795265198,"(1.2184696791468346e-07, 0.0, 0.0, 0.0, 1.2184696791468346e-07, 0.0, 0.0, 0.0, 1.2184696791468346e-07)",-1.0198916,-0.7943386499999987,9.7674234,"(8.999999999999999e-08, 0.0, 0.0, 0.0, 8.999999999999999e-08, 0.0, 0.0, 0.0, 8.999999999999999e-08)"
2025/07/05/17:49:50.471515,10463,1751712590,480147008,base_link,0.022023597639286133,-0.06469451314025763,0.14936159183865738,-0.9864181141889021,"(1.0, 0.0, 0.0, 0.0, 1.0, 0.0, 0.0, 0.0, 1.0)",-0.5600040555000305,-0.006196436472237104,0.04763108491897583,"(1.2184696791468346e-07, 0.0, 0.0, 0.0, 1.2184696791468346e-07, 0.0, 0.0, 0.0, 1.2184696791468346e-07)",-1.0395049,-1.0689248499999988,9.6889702,"(8.999999999999999e-08, 0.0, 0.0, 0.0, 8.999999999999999e-08, 0.0, 0.0, 0.0, 8.999999999999999e-08)"
2025/07/05/17:49:50.591502,10464,1751712590,601147008,base_link,0.0445039998372443,-0.06980534181749719,0.13198073349346268,-0.9877892964791412,"(1.0, 0.0, 0.0, 0.0, 1.0, 0.0, 0.0, 0.0, 1.0)",-0.4203015863895416,0.018978564068675072,0.26682180166244507,"(1.2184696791468346e-07, 0.0, 0.0, 0.0, 1.2184696791468346e-07, 0.0, 0.0, 0.0, 1.2184696791468346e-07)",-1.24544455,-1.0296982499999987,9.73800345,"(8.999999999999999e-08, 0.0, 0.0, 0.0, 8.999999999999999e-08, 0.0, 0.0, 0.0, 8.999999999999999e-08)"
2025/07/05/17:49:50.672233,10465,1751712590,680147008,base_link,0.039879766626181666,-0.07089210722270693,0.11726915439340369,-0.9897635367981696,"(1.0, 0.0, 0.0, 0.0, 1.0, 0.0, 0.0, 0.0, 1.0)",-0.00932035967707634,0.01863057166337971,0.353307843208313,"(1.2184696791468346e-07, 0.0, 0.0, 0.0, 1.2184696791468346e-07, 0.0, 0.0, 0.0, 1.2184696791468346e-07)",-1.14737805,-1.0885381499999989,9.5124505,"(8.999999999999999e-08, 0.0, 0.0, 0.0, 8.999999999999999e-08, 0.0, 0.0, 0.0, 8.999999999999999e-08)"
2025/07/05/17:49:50.771917,10466,1751712590,780147008,base_link,0.019062628529369123,-0.06860088471630321,0.09573678871270935,-0.9928569897506234,"(1.0, 0.0, 0.0, 0.0, 1.0, 0.0, 0.0, 0.0, 1.0)",0.3887985944747925,-0.011588351801037735,0.44511058926582336,"(1.2184696791468346e-07, 0.0, 0.0, 0.0, 1.2184696791468346e-07, 0.0, 0.0, 0.0, 1.2184696791468346e-07)",-1.176798,-0.9120184499999989,9.414384,"(8.999999999999999e-08, 0.0, 0.0, 0.0, 8.999999999999999e-08, 0.0, 0.0, 0.0, 8.999999999999999e-08)"
2025/07/05/17:49:50.871850,10467,1751712590,880147008,base_link,-0.003947622841702541,-0.06501812608502094,0.07258213986292622,-0.9952330845220182,"(1.0, 0.0, 0.0, 0.0, 1.0, 0.0, 0.0, 0.0, 1.0)",0.44926223158836365,-0.03877683728933328,0.48733243346214294,"(1.2184696791468346e-07, 0.0, 0.0, 0.0, 1.2184696791468346e-07, 0.0, 0.0, 0.0, 1.2184696791468346e-07)",-1.1964113,-0.3628460499999988,9.58109705,"(8.999999999999999e-08, 0.0, 0.0, 0.0, 8.999999999999999e-08, 0.0, 0.0, 0.0, 8.999999999999999e-08)"
2025/07/05/17:49:50.992049,10468,1751712591,1147008,base_link,-0.01804009045786153,-0.06188525740688799,0.04532126405727604,-0.9968905421741175,"(1.0, 0.0, 0.0, 0.0, 1.0, 0.0, 0.0, 0.0, 1.0)",0.20830562710762024,-0.03535733371973032,0.4632038474082947,"(1.2184696791468346e-07, 0.0, 0.0, 0.0, 1.2184696791468346e-07, 0.0, 0.0, 0.0, 1.2184696791468346e-07)",-1.20621795,0.2255529500000012,9.69877685,"(8.999999999999999e-08, 0.0, 0.0, 0.0, 8.999999999999999e-08, 0.0, 0.0, 0.0, 8.999999999999999e-08)"
2025/07/05/17:49:51.070687,10469,1751712591,80147008,base_link,-0.0180067248915752,-0.06129299269393511,0.028629513992777907,-0.9975466294032764,"(1.0, 0.0, 0.0, 0.0, 1.0, 0.0, 0.0, 0.0, 1.0)",0.0051002176478505135,-0.015639858320355363,0.42064133286476135,"(1.2184696791468346e-07, 0.0, 0.0, 0.0, 1.2184696791468346e-07, 0.0, 0.0, 0.0, 1.2184696791468346e-07)",-1.2944778000000001,0.5785923500000012,9.71839015,"(8.999999999999999e-08, 0.0, 0.0, 0.0, 8.999999999999999e-08, 0.0, 0.0, 0.0, 8.999999999999999e-08)"
2025/07/05/17:49:51.172079,10470,1751712591,180147008,base_link,-0.012078993135345132,-0.06205522616123399,0.008848904430846679,-0.9979603918599615,"(1.0, 0.0, 0.0, 0.0, 1.0, 0.0, 0.0, 0.0, 1.0)",-0.14722281694412231,0.01161234453320508,0.38020914793014526,"(1.2184696791468346e-07, 0.0, 0.0, 0.0, 1.2184696791468346e-07, 0.0, 0.0, 0.0, 1.2184696791468346e-07)",-1.176798,0.6472389000000013,9.80665,"(8.999999999999999e-08, 0.0, 0.0, 0.0, 8.999999999999999e-08, 0.0, 0.0, 0.0, 8.999999999999999e-08)"
2025/07/05/17:49:51.250368,10471,1751712591,260147008,base_link,-0.007015599330297514,-0.06242447921708001,-0.007046935334204866,-0.9980001535385195,"(1.0, 0.0, 0.0, 0.0, 1.0, 0.0, 0.0, 0.0, 1.0)",-0.16098591685295105,0.015604962594807195,0.37691730260849,"(1.2184696791468346e-07, 0.0, 0.0, 0.0, 1.2184696791468346e-07, 0.0, 0.0, 0.0, 1.2184696791468346e-07)",-1.1964113,0.5491724000000012,9.67916355,"(8.999999999999999e-08, 0.0, 0.0, 0.0, 8.999999999999999e-08, 0.0, 0.0, 0.0, 8.999999999999999e-08)"
2025/07/05/17:49:51.330509,10472,1751712591,340147008,base_link,-0.004512558515057186,-0.06284997158705763,-0.02294467904108272,-0.9977489962865691,"(1.0, 0.0, 0.0, 0.0, 1.0, 0.0, 0.0, 0.0, 1.0)",-0.11135648936033249,0.009691676124930429,0.38407036662101746,"(1.2184696791468346e-07, 0.0, 0.0, 0.0, 1.2184696791468346e-07, 0.0, 0.0, 0.0, 1.2184696791468346e-07)",-1.28467115,0.5295591000000012,9.7085835,"(8.999999999999999e-08, 0.0, 0.0, 0.0, 8.999999999999999e-08, 0.0, 0.0, 0.0, 8.999999999999999e-08)"
2025/07/05/17:49:51.491973,10473,1751712591,501147008,base_link,-0.007219058085408065,-0.06241721839759342,-0.056187151605434534,-0.9964411573406301,"(1.0, 0.0, 0.0, 0.0, 1.0, 0.0, 0.0, 0.0, 1.0)",0.030622143298387527,-0.0066124014556407425,0.4122667610645294,"(1.2184696791468346e-07, 0.0, 0.0, 0.0, 1.2184696791468346e-07, 0.0, 0.0, 0.0, 1.2184696791468346e-07)",-1.2552512,0.39226600000000117,9.65955025,"(8.999999999999999e-08, 0.0, 0.0, 0.0, 8.999999999999999e-08, 0.0, 0.0, 0.0, 8.999999999999999e-08)"
2025/07/05/17:49:51.633564,10474,1751712591,643147008,base_link,-0.013588169579275168,-0.0625144400711312,-0.08541544864365558,-0.994289448582796,"(1.0, 0.0, 0.0, 0.0, 1.0, 0.0, 0.0, 0.0, 1.0)",0.06841716915369034,-0.0022310463245957582,0.4146387279033661,"(1.2184696791468346e-07, 0.0, 0.0, 0.0, 1.2184696791468346e-07, 0.0, 0.0, 0.0, 1.2184696791468346e-07)",-1.22583125,0.6864655000000012,9.6693569,"(8.999999999999999e-08, 0.0, 0.0, 0.0, 8.999999999999999e-08, 0.0, 0.0, 0.0, 8.999999999999999e-08)"
2025/07/05/17:49:51.710770,10475,1751712591,721147008,base_link,-0.015769197202380365,-0.06295420728215008,-0.10153344054276181,-0.9927129799980545,"(1.0, 0.0, 0.0, 0.0, 1.0, 0.0, 0.0, 0.0, 1.0)",0.04269002750515938,0.005915959831327249,0.40046006441116333,"(1.2184696791468346e-07, 0.0, 0.0, 0.0, 1.2184696791468346e-07, 0.0, 0.0, 0.0, 1.2184696791468346e-07)",-1.2944778000000001,0.7845320000000011,9.639936950000001,"(8.999999999999999e-08, 0.0, 0.0, 0.0, 8.999999999999999e-08, 0.0, 0.0, 0.0, 8.999999999999999e-08)"
2025/07/05/17:49:51.813420,10476,1751712591,824147008,base_link,-0.015543311766937391,-0.06292909946405757,-0.12103132515098486,-0.9905300360070638,"(1.0, 0.0, 0.0, 0.0, 1.0, 0.0, 0.0, 0.0, 1.0)",-0.020445087924599648,0.011284814216196584,0.38629549741744995,"(1.2184696791468346e-07, 0.0, 0.0, 0.0, 1.2184696791468346e-07, 0.0, 0.0, 0.0, 1.2184696791468346e-07)",-1.20621795,0.8041453000000013,9.71839015,"(8.999999999999999e-08, 0.0, 0.0, 0.0, 8.999999999999999e-08, 0.0, 0.0, 0.0, 8.999999999999999e-08)"
2025/07/05/17:49:51.891613,10477,1751712591,901147008,base_link,-0.013769527491521072,-0.0629786746640693,-0.13604345785394423,-0.9886031884559949,"(1.0, 0.0, 0.0, 0.0, 1.0, 0.0, 0.0, 0.0, 1.0)",-0.06095238775014877,0.013451823033392474,0.36917492747306824,"(1.2184696791468346e-07, 0.0, 0.0, 0.0, 1.2184696791468346e-07, 0.0, 0.0, 0.0, 1.2184696791468346e-07)",-1.1964113,0.9414384000000012,9.67916355,"(8.999999999999999e-08, 0.0, 0.0, 0.0, 8.999999999999999e-08, 0.0, 0.0, 0.0, 8.999999999999999e-08)"
2025/07/05/17:49:51.991080,10478,1751712592,1147008,base_link,-0.01050006756375369,-0.06329695239974337,-0.1548735303883605,-0.9858485857286132,"(1.0, 0.0, 0.0, 0.0, 1.0, 0.0, 0.0, 0.0, 1.0)",-0.08606550842523575,0.018601844087243125,0.36662203073501587,"(1.2184696791468346e-07, 0.0, 0.0, 0.0, 1.2184696791468346e-07, 0.0, 0.0, 0.0, 1.2184696791468346e-07)",-1.28467115,0.7551120500000013,9.6889702,"(8.999999999999999e-08, 0.0, 0.0, 0.0, 8.999999999999999e-08, 0.0, 0.0, 0.0, 8.999999999999999e-08)"
2025/07/05/17:49:52.071887,10479,1751712592,80147008,base_link,-0.008087815470131125,-0.06322518553911184,-0.16966264386534047,-0.9834387375078779,"(1.0, 0.0, 0.0, 0.0, 1.0, 0.0, 0.0, 0.0, 1.0)",-0.08600257337093353,0.013737820088863418,0.3637399971485138,"(1.2184696791468346e-07, 0.0, 0.0, 0.0, 1.2184696791468346e-07, 0.0, 0.0, 0.0, 1.2184696791468346e-07)",-1.176798,0.8531785500000013,9.67916355,"(8.999999999999999e-08, 0.0, 0.0, 0.0, 8.999999999999999e-08, 0.0, 0.0, 0.0, 8.999999999999999e-08)"
2025/07/05/17:49:52.171452,10480,1751712592,180147008,base_link,-0.005443325677204613,-0.06269844478996722,-0.1883574723168699,-0.9800820056754899,"(1.0, 0.0, 0.0, 0.0, 1.0, 0.0, 0.0, 0.0, 1.0)",-0.07417809963226318,0.0046096937730908845,0.3655647337436676,"(1.2184696791468346e-07, 0.0, 0.0, 0.0, 1.2184696791468346e-07, 0.0, 0.0, 0.0, 1.2184696791468346e-07)",-1.2748645,0.7256921000000012,9.65955025,"(8.999999999999999e-08, 0.0, 0.0, 0.0, 8.999999999999999e-08, 0.0, 0.0, 0.0, 8.999999999999999e-08)"
2025/07/05/17:49:52.251828,10481,1751712592,260147008,base_link,-0.004520806136214583,-0.06258532228437126,-0.2028911715597645,-0.9771887290843803,"(1.0, 0.0, 0.0, 0.0, 1.0, 0.0, 0.0, 0.0, 1.0)",-0.051826559007167816,0.004389235284179493,0.3624292016029358,"(1.2184696791468346e-07, 0.0, 0.0, 0.0, 1.2184696791468346e-07, 0.0, 0.0, 0.0, 1.2184696791468346e-07)",-1.14737805,0.9120184500000013,9.69877685,"(8.999999999999999e-08, 0.0, 0.0, 0.0, 8.999999999999999e-08, 0.0, 0.0, 0.0, 8.999999999999999e-08)"
2025/07/05/17:49:52.350601,10482,1751712592,360147008,base_link,-0.003911020949966852,-0.06290542551032008,-0.22102627758021565,-0.9732291590244961,"(1.0, 0.0, 0.0, 0.0, 1.0, 0.0, 0.0, 0.0, 1.0)",-0.03197106719017029,0.01276568137109284,0.36050981283187866,"(1.2184696791468346e-07, 0.0, 0.0, 0.0, 1.2184696791468346e-07, 0.0, 0.0, 0.0, 1.2184696791468346e-07)",-1.176798,0.6962721500000013,9.7281968,"(8.999999999999999e-08, 0.0, 0.0, 0.0, 8.999999999999999e-08, 0.0, 0.0, 0.0, 8.999999999999999e-08)"
2025/07/05/17:49:52.550573,10483,1751712592,560147008,base_link,-0.003065771196539172,-0.06369676165661811,-0.25729500454485826,-0.9642264278880205,"(1.0, 0.0, 0.0, 0.0, 1.0, 0.0, 0.0, 0.0, 1.0)",-0.02809133566915989,0.012563950382173106,0.36471283435821533,"(1.2184696791468346e-07, 0.0, 0.0, 0.0, 1.2184696791468346e-07, 0.0, 0.0, 0.0, 1.2184696791468346e-07)",-1.1375714000000001,0.7256921000000012,9.65955025,"(8.999999999999999e-08, 0.0, 0.0, 0.0, 8.999999999999999e-08, 0.0, 0.0, 0.0, 8.999999999999999e-08)"
2025/07/05/17:49:52.651025,10484,1751712592,660147008,base_link,-0.002131065173292098,-0.06385155222687289,-0.275114759940064,-0.9592863528178471,"(1.0, 0.0, 0.0, 0.0, 1.0, 0.0, 0.0, 0.0, 1.0)",-0.036243438720703125,0.012231940403580709,0.3589574694633484,"(1.2184696791468346e-07, 0.0, 0.0, 0.0, 1.2184696791468346e-07, 0.0, 0.0, 0.0, 1.2184696791468346e-07)",-1.1964113,0.8924051500000013,9.6889702,"(8.999999999999999e-08, 0.0, 0.0, 0.0, 8.999999999999999e-08, 0.0, 0.0, 0.0, 8.999999999999999e-08)"
2025/07/05/17:49:52.750178,10485,1751712592,760147008,base_link,-0.00102065498279411,-0.06382807245043806,-0.29287547136555175,-0.9540172397305373,"(1.0, 0.0, 0.0, 0.0, 1.0, 0.0, 0.0, 0.0, 1.0)",-0.044082120060920715,0.009596027433872266,0.3587251305580139,"(1.2184696791468346e-07, 0.0, 0.0, 0.0, 1.2184696791468346e-07, 0.0, 0.0, 0.0, 1.2184696791468346e-07)",-1.1179581,0.7060788000000011,9.6497436,"(8.999999999999999e-08, 0.0, 0.0, 0.0, 8.999999999999999e-08, 0.0, 0.0, 0.0, 8.999999999999999e-08)"
2025/07/05/17:49:52.850178,10486,1751712592,860147008,base_link,0.00044559087356254695,-0.06363090297987904,-0.3101562806123568,-0.9485536311835232,"(1.0, 0.0, 0.0, 0.0, 1.0, 0.0, 0.0, 0.0, 1.0)",-0.05209220573306084,0.007546599023044153,0.35259363055229187,"(1.2184696791468346e-07, 0.0, 0.0, 0.0, 1.2184696791468346e-07, 0.0, 0.0, 0.0, 1.2184696791468346e-07)",-1.1571847,0.7649187000000013,9.7085835,"(8.999999999999999e-08, 0.0, 0.0, 0.0, 8.999999999999999e-08, 0.0, 0.0, 0.0, 8.999999999999999e-08)"
2025/07/05/17:49:52.970843,10487,1751712592,980147008,base_link,0.0025603978826353965,-0.06294162550359873,-0.33135569039115736,-0.9414006599673951,"(1.0, 0.0, 0.0, 0.0, 1.0, 0.0, 0.0, 0.0, 1.0)",-0.05973421037197113,0.005249563604593321,0.3624705374240875,"(1.2184696791468346e-07, 0.0, 0.0, 0.0, 1.2184696791468346e-07, 0.0, 0.0, 0.0, 1.2184696791468346e-07)",-1.2160246,0.6472389000000013,9.71839015,"(8.999999999999999e-08, 0.0, 0.0, 0.0, 8.999999999999999e-08, 0.0, 0.0, 0.0, 8.999999999999999e-08)"
2025/07/05/17:49:53.072515,10488,1751712593,80147008,base_link,0.0035793239172316454,-0.06261245990421171,-0.34845771590276425,-0.9352240846625302,"(1.0, 0.0, 0.0, 0.0, 1.0, 0.0, 0.0, 0.0, 1.0)",-0.04256363585591316,0.005311938934028192,0.3551236689090729,"(1.2184696791468346e-07, 0.0, 0.0, 0.0, 1.2184696791468346e-07, 0.0, 0.0, 0.0, 1.2184696791468346e-07)",-1.1179581,0.8924051500000013,9.67916355,"(8.999999999999999e-08, 0.0, 0.0, 0.0, 8.999999999999999e-08, 0.0, 0.0, 0.0, 8.999999999999999e-08)"
2025/07/05/17:49:53.170008,10489,1751712593,180147008,base_link,0.0043751513988270225,-0.06307665817031255,-0.365086847368863,-0.9288238730365233,"(1.0, 0.0, 0.0, 0.0, 1.0, 0.0, 0.0, 0.0, 1.0)",-0.03674797713756561,0.016302896663546604,0.3520418703556061,"(1.2184696791468346e-07, 0.0, 0.0, 0.0, 1.2184696791468346e-07, 0.0, 0.0, 0.0, 1.2184696791468346e-07)",-1.14737805,0.7158854500000013,9.7281968,"(8.999999999999999e-08, 0.0, 0.0, 0.0, 8.999999999999999e-08, 0.0, 0.0, 0.0, 8.999999999999999e-08)"
2025/07/05/17:49:53.250210,10490,1751712593,260147008,base_link,0.00516341233119503,-0.0632511745638602,-0.3785390322208342,-0.9234071849269445,"(1.0, 0.0, 0.0, 0.0, 1.0, 0.0, 0.0, 0.0, 1.0)",-0.03560589998960495,0.017637748271226925,0.3512881398200989,"(1.2184696791468346e-07, 0.0, 0.0, 0.0, 1.2184696791468346e-07, 0.0, 0.0, 0.0, 1.2184696791468346e-07)",-1.20621795,0.7845320000000011,9.610517,"(8.999999999999999e-08, 0.0, 0.0, 0.0, 8.999999999999999e-08, 0.0, 0.0, 0.0, 8.999999999999999e-08)"
2025/07/05/17:49:53.349997,10491,1751712593,360147008,base_link,0.006231829748018587,-0.06310582169471338,-0.39481046912261886,-0.9165716082431334,"(1.0, 0.0, 0.0, 0.0, 1.0, 0.0, 0.0, 0.0, 1.0)",-0.044195398688316345,0.010230461135506672,0.34406426548957825,"(1.2184696791468346e-07, 0.0, 0.0, 0.0, 1.2184696791468346e-07, 0.0, 0.0, 0.0, 1.2184696791468346e-07)",-1.1375714000000001,0.8825985000000013,9.6889702,"(8.999999999999999e-08, 0.0, 0.0, 0.0, 8.999999999999999e-08, 0.0, 0.0, 0.0, 8.999999999999999e-08)"
2025/07/05/17:49:53.550581,10492,1751712593,560147008,base_link,0.00903136639796183,-0.06152285849936494,-0.42747438513064645,-0.9018863688737226,"(1.0, 0.0, 0.0, 0.0, 1.0, 0.0, 0.0, 0.0, 1.0)",-0.05266101285815239,0.0008734175935388037,0.3474995493888855,"(1.2184696791468346e-07, 0.0, 0.0, 0.0, 1.2184696791468346e-07, 0.0, 0.0, 0.0, 1.2184696791468346e-07)",-1.16699135,0.7256921000000013,9.7085835,"(8.999999999999999e-08, 0.0, 0.0, 0.0, 8.999999999999999e-08, 0.0, 0.0, 0.0, 8.999999999999999e-08)"
2025/07/05/17:49:53.650474,10493,1751712593,660147008,base_link,0.010673474812733064,-0.061042885887178835,-0.44358842306296453,-0.8940856524642922,"(1.0, 0.0, 0.0, 0.0, 1.0, 0.0, 0.0, 0.0, 1.0)",-0.05181916058063507,0.010489881038665813,0.3459433317184448,"(1.2184696791468346e-07, 0.0, 0.0, 0.0, 1.2184696791468346e-07, 0.0, 0.0, 0.0, 1.2184696791468346e-07)",-1.1179581,0.8139519500000011,9.65955025,"(8.999999999999999e-08, 0.0, 0.0, 0.0, 8.999999999999999e-08, 0.0, 0.0, 0.0, 8.999999999999999e-08)"
2025/07/05/17:49:53.750873,10494,1751712593,760147008,base_link,0.011696024465037735,-0.061407286340874764,-0.45980300756636294,-0.8858180075099455,"(1.0, 0.0, 0.0, 0.0, 1.0, 0.0, 0.0, 0.0, 1.0)",-0.0404985174536705,0.01706762425601487,0.3563041090965271,"(1.2184696791468346e-07, 0.0, 0.0, 0.0, 1.2184696791468346e-07, 0.0, 0.0, 0.0, 1.2184696791468346e-07)",-1.1179581,0.7158854500000013,9.7085835,"(8.999999999999999e-08, 0.0, 0.0, 0.0, 8.999999999999999e-08, 0.0, 0.0, 0.0, 8.999999999999999e-08)"
2025/07/05/17:49:53.849990,10495,1751712593,860147008,base_link,0.012367893318881324,-0.061373248610195746,-0.4756814031943727,-0.8773867802884407,"(1.0, 0.0, 0.0, 0.0, 1.0, 0.0, 0.0, 0.0, 1.0)",-0.03256192058324814,0.011486731469631238,0.3501931428909302,"(1.2184696791468346e-07, 0.0, 0.0, 0.0, 1.2184696791468346e-07, 0.0, 0.0, 0.0, 1.2184696791468346e-07)",-1.176798,0.8629852000000011,9.6301303,"(8.999999999999999e-08, 0.0, 0.0, 0.0, 8.999999999999999e-08, 0.0, 0.0, 0.0, 8.999999999999999e-08)"
2025/07/05/17:49:53.971100,10496,1751712593,980147008,base_link,0.01310213066022292,-0.06101517396306945,-0.49460555383266436,-0.8668741712822584,"(1.0, 0.0, 0.0, 0.0, 1.0, 0.0, 0.0, 0.0, 1.0)",-0.03656163811683655,0.005649632774293466,0.3506346344947815,"(1.2184696791468346e-07, 0.0, 0.0, 0.0, 1.2184696791468346e-07, 0.0, 0.0, 0.0, 1.2184696791468346e-07)",-1.1179581,0.7943386500000013,9.6889702,"(8.999999999999999e-08, 0.0, 0.0, 0.0, 8.999999999999999e-08, 0.0, 0.0, 0.0, 8.999999999999999e-08)"
2025/07/05/17:49:54.051943,10497,1751712594,60147008,base_link,0.013807089506001971,-0.06072409288032271,-0.5071941875925905,-0.8595789695516797,"(1.0, 0.0, 0.0, 0.0, 1.0, 0.0, 0.0, 0.0, 1.0)",-0.04040723294019699,0.006393930874764963,0.35624971985816956,"(1.2184696791468346e-07, 0.0, 0.0, 0.0, 1.2184696791468346e-07, 0.0, 0.0, 0.0, 1.2184696791468346e-07)",-1.1571847,0.7256921000000013,9.67916355,"(8.999999999999999e-08, 0.0, 0.0, 0.0, 8.999999999999999e-08, 0.0, 0.0, 0.0, 8.999999999999999e-08)"
2025/07/05/17:49:54.150449,10498,1751712594,160147008,base_link,0.015028816880057416,-0.060372520412121725,-0.5219993773327202,-0.8506738173392467,"(1.0, 0.0, 0.0, 0.0, 1.0, 0.0, 0.0, 0.0, 1.0)",-0.045725710690021515,0.009840178303420585,0.3399337828159332,"(1.2184696791468346e-07, 0.0, 0.0, 0.0, 1.2184696791468346e-07, 0.0, 0.0, 0.0, 1.2184696791468346e-07)",-1.1179581,0.9806650000000012,9.67916355,"(8.999999999999999e-08, 0.0, 0.0, 0.0, 8.999999999999999e-08, 0.0, 0.0, 0.0, 8.999999999999999e-08)"
2025/07/05/17:49:54.250376,10499,1751712594,260147008,base_link,0.016578527349957916,-0.05955467608225646,-0.5370786452759162,-0.8412638835563019,"(1.0, 0.0, 0.0, 0.0, 1.0, 0.0, 0.0, 0.0, 1.0)",-0.0549379363656044,0.008635244332253975,0.3451113998889923,"(1.2184696791468346e-07, 0.0, 0.0, 0.0, 1.2184696791468346e-07, 0.0, 0.0, 0.0, 1.2184696791468346e-07)",-1.176798,0.7060788000000011,9.6693569,"(8.999999999999999e-08, 0.0, 0.0, 0.0, 8.999999999999999e-08, 0.0, 0.0, 0.0, 8.999999999999999e-08)"
2025/07/05/17:49:54.329919,10500,1751712594,340147008,base_link,0.01717669553474218,-0.0593565389576424,-0.548911081495247,-0.8335936582203556,"(1.0, 0.0, 0.0, 0.0, 1.0, 0.0, 0.0, 0.0, 1.0)",-0.03935907036066055,0.007681813556700987,0.3482588827610016,"(1.2184696791468346e-07, 0.0, 0.0, 0.0, 1.2184696791468346e-07, 0.0, 0.0, 0.0, 1.2184696791468346e-07)",-1.16699135,0.8335652500000011,9.6693569,"(8.999999999999999e-08, 0.0, 0.0, 0.0, 8.999999999999999e-08, 0.0, 0.0, 0.0, 8.999999999999999e-08)"
2025/07/05/17:49:54.491542,10501,1751712594,501147008,base_link,0.0194706396709311,-0.058314363118412545,-0.5722872275688082,-0.8177454728743573,"(1.0, 0.0, 0.0, 0.0, 1.0, 0.0, 0.0, 0.0, 1.0)",-0.05728236585855484,0.00870805419981484,0.34922119975090027,"(1.2184696791468346e-07, 0.0, 0.0, 0.0, 1.2184696791468346e-07, 0.0, 0.0, 0.0, 1.2184696791468346e-07)",-1.1375714000000001,0.6962721500000013,9.6889702,"(8.999999999999999e-08, 0.0, 0.0, 0.0, 8.999999999999999e-08, 0.0, 0.0, 0.0, 8.999999999999999e-08)"
2025/07/05/17:49:54.591247,10502,1751712594,601147008,base_link,0.020781746962882184,-0.05782434359495231,-0.5866124641843472,-0.8075334551240287,"(1.0, 0.0, 0.0, 0.0, 1.0, 0.0, 0.0, 0.0, 1.0)",-0.050998978316783905,0.009778972715139432,0.34775790572166443,"(1.2184696791468346e-07, 0.0, 0.0, 0.0, 1.2184696791468346e-07, 0.0, 0.0, 0.0, 1.2184696791468346e-07)",-1.1179581,0.6962721500000013,9.71839015,"(8.999999999999999e-08, 0.0, 0.0, 0.0, 8.999999999999999e-08, 0.0, 0.0, 0.0, 8.999999999999999e-08)"
2025/07/05/17:49:54.672202,10503,1751712594,680147008,base_link,0.021394873401472034,-0.05772476482601037,-0.5976687812304071,-0.7993760935007229,"(1.0, 0.0, 0.0, 0.0, 1.0, 0.0, 0.0, 0.0, 1.0)",-0.03256376087665558,0.009873449802398723,0.337852418422699,"(1.2184696791468346e-07, 0.0, 0.0, 0.0, 1.2184696791468346e-07, 0.0, 0.0, 0.0, 1.2184696791468346e-07)",-1.12776475,0.8825985000000013,9.67916355,"(8.999999999999999e-08, 0.0, 0.0, 0.0, 8.999999999999999e-08, 0.0, 0.0, 0.0, 8.999999999999999e-08)"
2025/07/05/17:49:54.771187,10504,1751712594,780147008,base_link,0.02174369491646267,-0.05751543354766777,-0.611745690544726,-0.7886611418950219,"(1.0, 0.0, 0.0, 0.0, 1.0, 0.0, 0.0, 0.0, 1.0)",-0.03310856968164444,0.004757301881909413,0.3491933345794678,"(1.2184696791468346e-07, 0.0, 0.0, 0.0, 1.2184696791468346e-07, 0.0, 0.0, 0.0, 1.2184696791468346e-07)",-1.1571847,0.6080123000000012,9.6889702,"(8.999999999999999e-08, 0.0, 0.0, 0.0, 8.999999999999999e-08, 0.0, 0.0, 0.0, 8.999999999999999e-08)"
2025/07/05/17:49:54.891532,10505,1751712594,901147008,base_link,0.02218206988760003,-0.05727457173263894,-0.6283080813339477,-0.7755362880863782,"(1.0, 0.0, 0.0, 0.0, 1.0, 0.0, 0.0, 0.0, 1.0)",-0.02752511575818062,0.0058077168650925584,0.348728746175766,"(1.2184696791468346e-07, 0.0, 0.0, 0.0, 1.2184696791468346e-07, 0.0, 0.0, 0.0, 1.2184696791468346e-07)",-1.1179581,0.7747253500000011,9.6693569,"(8.999999999999999e-08, 0.0, 0.0, 0.0, 8.999999999999999e-08, 0.0, 0.0, 0.0, 8.999999999999999e-08)"
2025/07/05/17:49:55.012010,10506,1751712595,21147008,base_link,0.023683326636713423,-0.05665745007186844,-0.6445194389537545,-0.7621179214540948,"(1.0, 0.0, 0.0, 0.0, 1.0, 0.0, 0.0, 0.0, 1.0)",-0.05023670196533203,0.012970766983926338,0.3453681766986847,"(1.2184696791468346e-07, 0.0, 0.0, 0.0, 1.2184696791468346e-07, 0.0, 0.0, 0.0, 1.2184696791468346e-07)",-1.0983448,0.7747253500000011,9.6497436,"(8.999999999999999e-08, 0.0, 0.0, 0.0, 8.999999999999999e-08, 0.0, 0.0, 0.0, 8.999999999999999e-08)"
2025/07/05/17:49:55.091193,10507,1751712595,101147008,base_link,0.024724201622829692,-0.05619573608011015,-0.6550296300563667,-0.7531048644436894,"(1.0, 0.0, 0.0, 0.0, 1.0, 0.0, 0.0, 0.0, 1.0)",-0.0509677454829216,0.013334162533283275,0.3427773714065552,"(1.2184696791468346e-07, 0.0, 0.0, 0.0, 1.2184696791468346e-07, 0.0, 0.0, 0.0, 1.2184696791468346e-07)",-1.1571847,0.7747253500000011,9.65955025,"(8.999999999999999e-08, 0.0, 0.0, 0.0, 8.999999999999999e-08, 0.0, 0.0, 0.0, 8.999999999999999e-08)"
2025/07/05/17:49:55.171180,10508,1751712595,180147008,base_link,0.025510277551777493,-0.05580003701239881,-0.6652808347849951,-0.7440678681924293,"(1.0, 0.0, 0.0, 0.0, 1.0, 0.0, 0.0, 0.0, 1.0)",-0.047002144157886505,0.010139564052224201,0.3394419848918915,"(1.2184696791468346e-07, 0.0, 0.0, 0.0, 1.2184696791468346e-07, 0.0, 0.0, 0.0, 1.2184696791468346e-07)",-1.1375714000000001,0.8041453000000013,9.69877685,"(8.999999999999999e-08, 0.0, 0.0, 0.0, 8.999999999999999e-08, 0.0, 0.0, 0.0, 8.999999999999999e-08)"
2025/07/05/17:49:55.274385,10509,1751712595,280147008,base_link,0.02670018262240442,-0.05501469255243315,-0.6781859883408803,-0.7323416204677945,"(1.0, 0.0, 0.0, 0.0, 1.0, 0.0, 0.0, 0.0, 1.0)",-0.04884307086467743,0.008021966554224533,0.3446212708950043,"(1.2184696791468346e-07, 0.0, 0.0, 0.0, 1.2184696791468346e-07, 0.0, 0.0, 0.0, 1.2184696791468346e-07)",-1.1179581,0.7060788000000012,9.69877685,"(8.999999999999999e-08, 0.0, 0.0, 0.0, 8.999999999999999e-08, 0.0, 0.0, 0.0, 8.999999999999999e-08)"
2025/07/05/17:49:55.391679,10510,1751712595,401147008,base_link,0.027256183226354935,-0.05493560425618802,-0.6932623820193488,-0.7180713401451122,"(1.0, 0.0, 0.0, 0.0, 1.0, 0.0, 0.0, 0.0, 1.0)",-0.03009505569934845,0.009432656690478367,0.3437820076942444,"(1.2184696791468346e-07, 0.0, 0.0, 0.0, 1.2184696791468346e-07, 0.0, 0.0, 0.0, 1.2184696791468346e-07)",-1.1375714000000001,0.8139519500000011,9.6693569,"(8.999999999999999e-08, 0.0, 0.0, 0.0, 8.999999999999999e-08, 0.0, 0.0, 0.0, 8.999999999999999e-08)"
2025/07/05/17:49:55.569909,10511,1751712595,580147008,base_link,0.02853948223946985,-0.054231070262224075,-0.7153333465625036,-0.6960910086097977,"(1.0, 0.0, 0.0, 0.0, 1.0, 0.0, 0.0, 0.0, 1.0)",-0.03957253694534302,0.00926843471825127,0.3442351520061493,"(1.2184696791468346e-07, 0.0, 0.0, 0.0, 1.2184696791468346e-07, 0.0, 0.0, 0.0, 1.2184696791468346e-07)",-1.1179581,0.7158854500000013,9.7085835,"(8.999999999999999e-08, 0.0, 0.0, 0.0, 8.999999999999999e-08, 0.0, 0.0, 0.0, 8.999999999999999e-08)"
2025/07/05/17:49:55.651067,10512,1751712595,660147008,base_link,0.02914334499345681,-0.05376267140836612,-0.7248594433028016,-0.6861771112915243,"(1.0, 0.0, 0.0, 0.0, 1.0, 0.0, 0.0, 0.0, 1.0)",-0.04182665795087814,0.006896885111928028,0.3417585790157318,"(1.2184696791468346e-07, 0.0, 0.0, 0.0, 1.2184696791468346e-07, 0.0, 0.0, 0.0, 1.2184696791468346e-07)",-1.10815145,0.8237586000000011,9.6693569,"(8.999999999999999e-08, 0.0, 0.0, 0.0, 8.999999999999999e-08, 0.0, 0.0, 0.0, 8.999999999999999e-08)"
