time,.header.seq,.header.stamp.secs,.header.stamp.nsecs,.header.frame_id,.orientation.x,.orientation.y,.orientation.z,.orientation.w,.orientation_covariance,.angular_velocity.x,.angular_velocity.y,.angular_velocity.z,.angular_velocity_covariance,.linear_acceleration.x,.linear_acceleration.y,.linear_acceleration.z,.linear_acceleration_covariance
2025/07/05/17:49:30.950625,10277,1751712570,960618008,base_link,0.0,0.0,0.0,0.0,"(-1.0, 0.0, 0.0, 0.0, 0.0, 0.0, 0.0, 0.0, 0.0)",0.001,0.002000000000000009,0.073,"(1.2184696791468346e-07, 0.0, 0.0, 0.0, 1.2184696791468346e-07, 0.0, 0.0, 0.0, 1.2184696791468346e-07)",-1.4121576,0.1470997500000012,9.6693569,"(8.999999999999999e-08, 0.0, 0.0, 0.0, 8.999999999999999e-08, 0.0, 0.0, 0.0, 8.999999999999999e-08)"
2025/07/05/17:49:31.031337,10278,1751712571,41285008,base_link,0.0,0.0,0.0,0.0,"(-1.0, 0.0, 0.0, 0.0, 0.0, 0.0, 0.0, 0.0, 0.0)",-0.001,0.0020000000000000087,0.07200000000000001,"(1.2184696791468346e-07, 0.0, 0.0, 0.0, 1.2184696791468346e-07, 0.0, 0.0, 0.0, 1.2184696791468346e-07)",-1.4121576,0.1470997500000012,9.639936950000001,"(8.999999999999999e-08, 0.0, 0.0, 0.0, 8.999999999999999e-08, 0.0, 0.0, 0.0, 8.999999999999999e-08)"
2025/07/05/17:49:31.150936,10279,1751712571,160596008,base_link,0.0,0.0,0.0,0.0,"(-1.0, 0.0, 0.0, 0.0, 0.0, 0.0, 0.0, 0.0, 0.0)",0.005,8.572527594031473e-18,0.07,"(1.2184696791468346e-07, 0.0, 0.0, 0.0, 1.2184696791468346e-07, 0.0, 0.0, 0.0, 1.2184696791468346e-07)",-1.42196425,0.1569064000000012,9.639936950000001,"(8.999999999999999e-08, 0.0, 0.0, 0.0, 8.999999999999999e-08, 0.0, 0.0, 0.0, 8.999999999999999e-08)"
2025/07/05/17:49:31.250755,10280,1751712571,260586008,base_link,0.0,0.0,0.0,0.0,"(-1.0, 0.0, 0.0, 0.0, 0.0, 0.0, 0.0, 0.0, 0.0)",0.016,-0.002999999999999991,0.073,"(1.2184696791468346e-07, 0.0, 0.0, 0.0, 1.2184696791468346e-07, 0.0, 0.0, 0.0, 1.2184696791468346e-07)",-1.4121576,0.1569064000000012,9.639936950000001,"(8.999999999999999e-08, 0.0, 0.0, 0.0, 8.999999999999999e-08, 0.0, 0.0, 0.0, 8.999999999999999e-08)"
2025/07/05/17:49:31.350918,10281,1751712571,360748008,base_link,0.0,0.0,0.0,0.0,"(-1.0, 0.0, 0.0, 0.0, 0.0, 0.0, 0.0, 0.0, 0.0)",0.019,-0.0039999999999999905,0.076,"(1.2184696791468346e-07, 0.0, 0.0, 0.0, 1.2184696791468346e-07, 0.0, 0.0, 0.0, 1.2184696791468346e-07)",-1.42196425,0.1569064000000012,9.69877685,"(8.999999999999999e-08, 0.0, 0.0, 0.0, 8.999999999999999e-08, 0.0, 0.0, 0.0, 8.999999999999999e-08)"
2025/07/05/17:49:31.511657,10282,1751712571,521676008,base_link,0.0,0.0,0.0,0.0,"(-1.0, 0.0, 0.0, 0.0, 0.0, 0.0, 0.0, 0.0, 0.0)",-0.001,-0.003999999999999991,0.073,"(1.2184696791468346e-07, 0.0, 0.0, 0.0, 1.2184696791468346e-07, 0.0, 0.0, 0.0, 1.2184696791468346e-07)",-1.42196425,0.1667130500000012,9.69877685,"(8.999999999999999e-08, 0.0, 0.0, 0.0, 8.999999999999999e-08, 0.0, 0.0, 0.0, 8.999999999999999e-08)"
2025/07/05/17:49:31.592077,10283,1751712571,602156008,base_link,0.0,0.0,0.0,0.0,"(-1.0, 0.0, 0.0, 0.0, 0.0, 0.0, 0.0, 0.0, 0.0)",-0.013000000000000001,-0.0009999999999999913,0.07,"(1.2184696791468346e-07, 0.0, 0.0, 0.0, 1.2184696791468346e-07, 0.0, 0.0, 0.0, 1.2184696791468346e-07)",-1.4121576,0.1667130500000012,9.6693569,"(8.999999999999999e-08, 0.0, 0.0, 0.0, 8.999999999999999e-08, 0.0, 0.0, 0.0, 8.999999999999999e-08)"
2025/07/05/17:49:31.672290,10284,1751712571,681696008,base_link,0.0,0.0,0.0,0.0,"(-1.0, 0.0, 0.0, 0.0, 0.0, 0.0, 0.0, 0.0, 0.0)",-0.015,8.327598234202002e-18,0.068,"(1.2184696791468346e-07, 0.0, 0.0, 0.0, 1.2184696791468346e-07, 0.0, 0.0, 0.0, 1.2184696791468346e-07)",-1.4121576,0.1765197000000012,9.639936950000001,"(8.999999999999999e-08, 0.0, 0.0, 0.0, 8.999999999999999e-08, 0.0, 0.0, 0.0, 8.999999999999999e-08)"
2025/07/05/17:49:31.771757,10285,1751712571,781395008,base_link,0.0,0.0,0.0,0.0,"(-1.0, 0.0, 0.0, 0.0, 0.0, 0.0, 0.0, 0.0, 0.0)",-0.001,8.450062914116738e-18,0.069,"(1.2184696791468346e-07, 0.0, 0.0, 0.0, 1.2184696791468346e-07, 0.0, 0.0, 0.0, 1.2184696791468346e-07)",-1.4121576,0.1569064000000012,9.6301303,"(8.999999999999999e-08, 0.0, 0.0, 0.0, 8.999999999999999e-08, 0.0, 0.0, 0.0, 8.999999999999999e-08)"
2025/07/05/17:49:31.851379,10286,1751712571,861316008,base_link,0.0,0.0,0.0,0.0,"(-1.0, 0.0, 0.0, 0.0, 0.0, 0.0, 0.0, 0.0, 0.0)",0.016,-0.0019999999999999914,0.07200000000000001,"(1.2184696791468346e-07, 0.0, 0.0, 0.0, 1.2184696791468346e-07, 0.0, 0.0, 0.0, 1.2184696791468346e-07)",-1.4121576,0.1470997500000012,9.65955025,"(8.999999999999999e-08, 0.0, 0.0, 0.0, 8.999999999999999e-08, 0.0, 0.0, 0.0, 8.999999999999999e-08)"
2025/07/05/17:49:31.992194,10287,1751712572,2262008,base_link,0.0,0.0,0.0,0.0,"(-1.0, 0.0, 0.0, 0.0, 0.0, 0.0, 0.0, 0.0, 0.0)",0.027,-0.0019999999999999914,0.07100000000000001,"(1.2184696791468346e-07, 0.0, 0.0, 0.0, 1.2184696791468346e-07, 0.0, 0.0, 0.0, 1.2184696791468346e-07)",-1.4317709,0.1569064000000012,9.69877685,"(8.999999999999999e-08, 0.0, 0.0, 0.0, 8.999999999999999e-08, 0.0, 0.0, 0.0, 8.999999999999999e-08)"
2025/07/05/17:49:32.051357,10288,1751712572,61306008,base_link,0.0,0.0,0.0,0.0,"(-1.0, 0.0, 0.0, 0.0, 0.0, 0.0, 0.0, 0.0, 0.0)",0.019,-0.0009999999999999916,0.069,"(1.2184696791468346e-07, 0.0, 0.0, 0.0, 1.2184696791468346e-07, 0.0, 0.0, 0.0, 1.2184696791468346e-07)",-1.42196425,0.1667130500000012,9.67916355,"(8.999999999999999e-08, 0.0, 0.0, 0.0, 8.999999999999999e-08, 0.0, 0.0, 0.0, 8.999999999999999e-08)"
2025/07/05/17:49:32.171981,10289,1751712572,180727008,base_link,0.0,0.0,0.0,0.0,"(-1.0, 0.0, 0.0, 0.0, 0.0, 0.0, 0.0, 0.0, 0.0)",-0.002,7.715274834628325e-18,0.063,"(1.2184696791468346e-07, 0.0, 0.0, 0.0, 1.2184696791468346e-07, 0.0, 0.0, 0.0, 1.2184696791468346e-07)",-1.4121576,0.1667130500000012,9.65955025,"(8.999999999999999e-08, 0.0, 0.0, 0.0, 8.999999999999999e-08, 0.0, 0.0, 0.0, 8.999999999999999e-08)"
2025/07/05/17:49:32.272117,10290,1751712572,281119008,base_link,0.0,0.0,0.0,0.0,"(-1.0, 0.0, 0.0, 0.0, 0.0, 0.0, 0.0, 0.0, 0.0)",-0.009000000000000001,-0.0019999999999999927,0.06,"(1.2184696791468346e-07, 0.0, 0.0, 0.0, 1.2184696791468346e-07, 0.0, 0.0, 0.0, 1.2184696791468346e-07)",-1.4121576,0.1667130500000012,9.6497436,"(8.999999999999999e-08, 0.0, 0.0, 0.0, 8.999999999999999e-08, 0.0, 0.0, 0.0, 8.999999999999999e-08)"
2025/07/05/17:49:32.350966,10291,1751712572,361327008,base_link,0.0,0.0,0.0,0.0,"(-1.0, 0.0, 0.0, 0.0, 0.0, 0.0, 0.0, 0.0, 0.0)",-0.005,-0.003999999999999992,0.061,"(1.2184696791468346e-07, 0.0, 0.0, 0.0, 1.2184696791468346e-07, 0.0, 0.0, 0.0, 1.2184696791468346e-07)",-1.40235095,0.1569064000000012,9.65955025,"(8.999999999999999e-08, 0.0, 0.0, 0.0, 8.999999999999999e-08, 0.0, 0.0, 0.0, 8.999999999999999e-08)"
2025/07/05/17:49:32.531224,10292,1751712572,540991008,base_link,0.0,0.0,0.0,0.0,"(-1.0, 0.0, 0.0, 0.0, 0.0, 0.0, 0.0, 0.0, 0.0)",0.012,-0.0029999999999999923,0.062,"(1.2184696791468346e-07, 0.0, 0.0, 0.0, 1.2184696791468346e-07, 0.0, 0.0, 0.0, 1.2184696791468346e-07)",-1.4317709,0.1372931000000012,9.6889702,"(8.999999999999999e-08, 0.0, 0.0, 0.0, 8.999999999999999e-08, 0.0, 0.0, 0.0, 8.999999999999999e-08)"
2025/07/05/17:49:32.633849,10293,1751712572,644243008,base_link,0.0,0.0,0.0,0.0,"(-1.0, 0.0, 0.0, 0.0, 0.0, 0.0, 0.0, 0.0, 0.0)",0.015,7.59281015471359e-18,0.062,"(1.2184696791468346e-07, 0.0, 0.0, 0.0, 1.2184696791468346e-07, 0.0, 0.0, 0.0, 1.2184696791468346e-07)",-1.42196425,0.1372931000000012,9.67916355,"(8.999999999999999e-08, 0.0, 0.0, 0.0, 8.999999999999999e-08, 0.0, 0.0, 0.0, 8.999999999999999e-08)"
2025/07/05/17:49:32.751299,10294,1751712572,760718008,base_link,0.0,0.0,0.0,0.0,"(-1.0, 0.0, 0.0, 0.0, 0.0, 0.0, 0.0, 0.0, 0.0)",0.009000000000000001,0.0020000000000000074,0.061,"(1.2184696791468346e-07, 0.0, 0.0, 0.0, 1.2184696791468346e-07, 0.0, 0.0, 0.0, 1.2184696791468346e-07)",-1.40235095,0.1667130500000012,9.639936950000001,"(8.999999999999999e-08, 0.0, 0.0, 0.0, 8.999999999999999e-08, 0.0, 0.0, 0.0, 8.999999999999999e-08)"
2025/07/05/17:49:32.834668,10295,1751712572,844011008,base_link,0.0,0.0,0.0,0.0,"(-1.0, 0.0, 0.0, 0.0, 0.0, 0.0, 0.0, 0.0, 0.0)",0.003,7.347880794884118e-18,0.06,"(1.2184696791468346e-07, 0.0, 0.0, 0.0, 1.2184696791468346e-07, 0.0, 0.0, 0.0, 1.2184696791468346e-07)",-1.4121576,0.1765197000000012,9.6497436,"(8.999999999999999e-08, 0.0, 0.0, 0.0, 8.999999999999999e-08, 0.0, 0.0, 0.0, 8.999999999999999e-08)"
2025/07/05/17:49:32.953146,10296,1751712572,960710008,base_link,0.0,0.0,0.0,0.0,"(-1.0, 0.0, 0.0, 0.0, 0.0, 0.0, 0.0, 0.0, 0.0)",0.0,-0.004999999999999993,0.057,"(1.2184696791468346e-07, 0.0, 0.0, 0.0, 1.2184696791468346e-07, 0.0, 0.0, 0.0, 1.2184696791468346e-07)",-1.42196425,0.1470997500000012,9.6693569,"(8.999999999999999e-08, 0.0, 0.0, 0.0, 8.999999999999999e-08, 0.0, 0.0, 0.0, 8.999999999999999e-08)"
2025/07/05/17:49:33.033857,10297,1751712573,44203008,base_link,0.0,0.0,0.0,0.0,"(-1.0, 0.0, 0.0, 0.0, 0.0, 0.0, 0.0, 0.0, 0.0)",0.003,-0.005999999999999993,0.058,"(1.2184696791468346e-07, 0.0, 0.0, 0.0, 1.2184696791468346e-07, 0.0, 0.0, 0.0, 1.2184696791468346e-07)",-1.42196425,0.11767980000000118,9.6889702,"(8.999999999999999e-08, 0.0, 0.0, 0.0, 8.999999999999999e-08, 0.0, 0.0, 0.0, 8.999999999999999e-08)"
2025/07/05/17:49:33.131586,10298,1751712573,141171008,base_link,0.0,0.0,0.0,0.0,"(-1.0, 0.0, 0.0, 0.0, 0.0, 0.0, 0.0, 0.0, 0.0)",0.012,-0.0029999999999999927,0.06,"(1.2184696791468346e-07, 0.0, 0.0, 0.0, 1.2184696791468346e-07, 0.0, 0.0, 0.0, 1.2184696791468346e-07)",-1.42196425,0.1274864500000012,9.67916355,"(8.999999999999999e-08, 0.0, 0.0, 0.0, 8.999999999999999e-08, 0.0, 0.0, 0.0, 8.999999999999999e-08)"
2025/07/05/17:49:33.250677,10299,1751712573,260616008,base_link,0.0,0.0,0.0,0.0,"(-1.0, 0.0, 0.0, 0.0, 0.0, 0.0, 0.0, 0.0, 0.0)",0.012,7.59281015471359e-18,0.062,"(1.2184696791468346e-07, 0.0, 0.0, 0.0, 1.2184696791468346e-07, 0.0, 0.0, 0.0, 1.2184696791468346e-07)",-1.4121576,0.1667130500000012,9.639936950000001,"(8.999999999999999e-08, 0.0, 0.0, 0.0, 8.999999999999999e-08, 0.0, 0.0, 0.0, 8.999999999999999e-08)"
2025/07/05/17:49:33.351138,10300,1751712573,360569008,base_link,0.0,0.0,0.0,0.0,"(-1.0, 0.0, 0.0, 0.0, 0.0, 0.0, 0.0, 0.0, 0.0)",0.003,-0.0009999999999999926,0.061,"(1.2184696791468346e-07, 0.0, 0.0, 0.0, 1.2184696791468346e-07, 0.0, 0.0, 0.0, 1.2184696791468346e-07)",-1.2944778000000001,0.1765197000000012,9.6301303,"(8.999999999999999e-08, 0.0, 0.0, 0.0, 8.999999999999999e-08, 0.0, 0.0, 0.0, 8.999999999999999e-08)"
2025/07/05/17:49:33.512978,10301,1751712573,522196008,base_link,0.0,0.0,0.0,0.0,"(-1.0, 0.0, 0.0, 0.0, 0.0, 0.0, 0.0, 0.0, 0.0)",-0.029,-0.03499999999999999,0.085,"(1.2184696791468346e-07, 0.0, 0.0, 0.0, 1.2184696791468346e-07, 0.0, 0.0, 0.0, 1.2184696791468346e-07)",-0.980665,-0.39226599999999884,9.77723005,"(8.999999999999999e-08, 0.0, 0.0, 0.0, 8.999999999999999e-08, 0.0, 0.0, 0.0, 8.999999999999999e-08)"
2025/07/05/17:49:33.593194,10302,1751712573,602693008,base_link,0.0,0.0,0.0,0.0,"(-1.0, 0.0, 0.0, 0.0, 0.0, 0.0, 0.0, 0.0, 0.0)",-0.079,-0.028999999999999984,0.129,"(1.2184696791468346e-07, 0.0, 0.0, 0.0, 1.2184696791468346e-07, 0.0, 0.0, 0.0, 1.2184696791468346e-07)",-1.01008495,0.10787315000000121,9.79684335,"(8.999999999999999e-08, 0.0, 0.0, 0.0, 8.999999999999999e-08, 0.0, 0.0, 0.0, 8.999999999999999e-08)"
2025/07/05/17:49:33.692191,10303,1751712573,701683008,base_link,0.0,0.0,0.0,0.0,"(-1.0, 0.0, 0.0, 0.0, 0.0, 0.0, 0.0, 0.0, 0.0)",-0.02,-0.003999999999999982,0.149,"(1.2184696791468346e-07, 0.0, 0.0, 0.0, 1.2184696791468346e-07, 0.0, 0.0, 0.0, 1.2184696791468346e-07)",-1.0198916,-0.04903324999999881,9.73800345,"(8.999999999999999e-08, 0.0, 0.0, 0.0, 8.999999999999999e-08, 0.0, 0.0, 0.0, 8.999999999999999e-08)"
2025/07/05/17:49:33.792311,10304,1751712573,801756008,base_link,0.0,0.0,0.0,0.0,"(-1.0, 0.0, 0.0, 0.0, 0.0, 0.0, 0.0, 0.0, 0.0)",0.037,0.014000000000000021,0.176,"(1.2184696791468346e-07, 0.0, 0.0, 0.0, 1.2184696791468346e-07, 0.0, 0.0, 0.0, 1.2184696791468346e-07)",-1.0395049,0.10787315000000118,9.69877685,"(8.999999999999999e-08, 0.0, 0.0, 0.0, 8.999999999999999e-08, 0.0, 0.0, 0.0, 8.999999999999999e-08)"
2025/07/05/17:49:33.892128,10305,1751712573,901723008,base_link,0.0,0.0,0.0,0.0,"(-1.0, 0.0, 0.0, 0.0, 0.0, 0.0, 0.0, 0.0, 0.0)",0.055,0.017000000000000026,0.191,"(1.2184696791468346e-07, 0.0, 0.0, 0.0, 1.2184696791468346e-07, 0.0, 0.0, 0.0, 1.2184696791468346e-07)",-1.02969825,0.1274864500000012,9.7085835,"(8.999999999999999e-08, 0.0, 0.0, 0.0, 8.999999999999999e-08, 0.0, 0.0, 0.0, 8.999999999999999e-08)"
2025/07/05/17:49:33.971492,10306,1751712573,980662008,base_link,0.0,0.0,0.0,0.0,"(-1.0, 0.0, 0.0, 0.0, 0.0, 0.0, 0.0, 0.0, 0.0)",0.036000000000000004,0.009000000000000025,0.194,"(1.2184696791468346e-07, 0.0, 0.0, 0.0, 1.2184696791468346e-07, 0.0, 0.0, 0.0, 1.2184696791468346e-07)",-1.0198916,0.2647795500000012,9.7281968,"(8.999999999999999e-08, 0.0, 0.0, 0.0, 8.999999999999999e-08, 0.0, 0.0, 0.0, 8.999999999999999e-08)"
2025/07/05/17:49:34.071695,10307,1751712574,81028008,base_link,0.0,0.0,0.0,0.0,"(-1.0, 0.0, 0.0, 0.0, 0.0, 0.0, 0.0, 0.0, 0.0)",0.0,0.0010000000000000232,0.19,"(1.2184696791468346e-07, 0.0, 0.0, 0.0, 1.2184696791468346e-07, 0.0, 0.0, 0.0, 1.2184696791468346e-07)",-1.0591182,0.2059396500000012,9.7674234,"(8.999999999999999e-08, 0.0, 0.0, 0.0, 8.999999999999999e-08, 0.0, 0.0, 0.0, 8.999999999999999e-08)"
2025/07/05/17:49:34.171925,10308,1751712574,181346008,base_link,0.0,0.0,0.0,0.0,"(-1.0, 0.0, 0.0, 0.0, 0.0, 0.0, 0.0, 0.0, 0.0)",-0.032,2.3513218543629182e-17,0.192,"(1.2184696791468346e-07, 0.0, 0.0, 0.0, 1.2184696791468346e-07, 0.0, 0.0, 0.0, 1.2184696791468346e-07)",-1.0591182,0.1863263500000012,9.73800345,"(8.999999999999999e-08, 0.0, 0.0, 0.0, 8.999999999999999e-08, 0.0, 0.0, 0.0, 8.999999999999999e-08)"
2025/07/05/17:49:34.251513,10309,1751712574,261373008,base_link,0.0,0.0,0.0,0.0,"(-1.0, 0.0, 0.0, 0.0, 0.0, 0.0, 0.0, 0.0, 0.0)",-0.047,0.001000000000000024,0.197,"(1.2184696791468346e-07, 0.0, 0.0, 0.0, 1.2184696791468346e-07, 0.0, 0.0, 0.0, 1.2184696791468346e-07)",-1.06892485,0.2157463000000012,9.7281968,"(8.999999999999999e-08, 0.0, 0.0, 0.0, 8.999999999999999e-08, 0.0, 0.0, 0.0, 8.999999999999999e-08)"
2025/07/05/17:49:34.392289,10310,1751712574,402072008,base_link,0.0,0.0,0.0,0.0,"(-1.0, 0.0, 0.0, 0.0, 0.0, 0.0, 0.0, 0.0, 0.0)",-0.035,-0.002999999999999975,0.20500000000000002,"(1.2184696791468346e-07, 0.0, 0.0, 0.0, 1.2184696791468346e-07, 0.0, 0.0, 0.0, 1.2184696791468346e-07)",-1.08853815,0.1961330000000012,9.6889702,"(8.999999999999999e-08, 0.0, 0.0, 0.0, 8.999999999999999e-08, 0.0, 0.0, 0.0, 8.999999999999999e-08)"
2025/07/05/17:49:34.571568,10311,1751712574,581241008,base_link,0.0,0.0,0.0,0.0,"(-1.0, 0.0, 0.0, 0.0, 0.0, 0.0, 0.0, 0.0, 0.0)",-0.004,-0.007999999999999972,0.22,"(1.2184696791468346e-07, 0.0, 0.0, 0.0, 1.2184696791468346e-07, 0.0, 0.0, 0.0, 1.2184696791468346e-07)",-1.1179581,0.1470997500000012,9.7478101,"(8.999999999999999e-08, 0.0, 0.0, 0.0, 8.999999999999999e-08, 0.0, 0.0, 0.0, 8.999999999999999e-08)"
2025/07/05/17:49:34.651297,10312,1751712574,661322008,base_link,0.0,0.0,0.0,0.0,"(-1.0, 0.0, 0.0, 0.0, 0.0, 0.0, 0.0, 0.0, 0.0)",0.01,-0.004999999999999972,0.227,"(1.2184696791468346e-07, 0.0, 0.0, 0.0, 1.2184696791468346e-07, 0.0, 0.0, 0.0, 1.2184696791468346e-07)",-1.10815145,0.2353596000000012,9.7281968,"(8.999999999999999e-08, 0.0, 0.0, 0.0, 8.999999999999999e-08, 0.0, 0.0, 0.0, 8.999999999999999e-08)"
2025/07/05/17:49:34.751430,10313,1751712574,761111008,base_link,0.0,0.0,0.0,0.0,"(-1.0, 0.0, 0.0, 0.0, 0.0, 0.0, 0.0, 0.0, 0.0)",0.012,2.828934106030386e-17,0.231,"(1.2184696791468346e-07, 0.0, 0.0, 0.0, 1.2184696791468346e-07, 0.0, 0.0, 0.0, 1.2184696791468346e-07)",-1.10815145,0.2647795500000012,9.73800345,"(8.999999999999999e-08, 0.0, 0.0, 0.0, 8.999999999999999e-08, 0.0, 0.0, 0.0, 8.999999999999999e-08)"
2025/07/05/17:49:34.872086,10314,1751712574,880898008,base_link,0.0,0.0,0.0,0.0,"(-1.0, 0.0, 0.0, 0.0, 0.0, 0.0, 0.0, 0.0, 0.0)",-0.019,0.003000000000000028,0.227,"(1.2184696791468346e-07, 0.0, 0.0, 0.0, 1.2184696791468346e-07, 0.0, 0.0, 0.0, 1.2184696791468346e-07)",-1.10815145,0.2647795500000012,9.67916355,"(8.999999999999999e-08, 0.0, 0.0, 0.0, 8.999999999999999e-08, 0.0, 0.0, 0.0, 8.999999999999999e-08)"
2025/07/05/17:49:34.992060,10315,1751712575,1686008,base_link,0.0,0.0,0.0,0.0,"(-1.0, 0.0, 0.0, 0.0, 0.0, 0.0, 0.0, 0.0, 0.0)",-0.043000000000000003,-0.000999999999999973,0.221,"(1.2184696791468346e-07, 0.0, 0.0, 0.0, 1.2184696791468346e-07, 0.0, 0.0, 0.0, 1.2184696791468346e-07)",-1.1375714000000001,0.2353596000000012,9.7085835,"(8.999999999999999e-08, 0.0, 0.0, 0.0, 8.999999999999999e-08, 0.0, 0.0, 0.0, 8.999999999999999e-08)"
2025/07/05/17:49:35.051427,10316,1751712575,61527008,base_link,0.0,0.0,0.0,0.0,"(-1.0, 0.0, 0.0, 0.0, 0.0, 0.0, 0.0, 0.0, 0.0)",-0.032,-0.0029999999999999736,0.217,"(1.2184696791468346e-07, 0.0, 0.0, 0.0, 1.2184696791468346e-07, 0.0, 0.0, 0.0, 1.2184696791468346e-07)",-1.04931155,0.6668522000000012,9.71839015,"(8.999999999999999e-08, 0.0, 0.0, 0.0, 8.999999999999999e-08, 0.0, 0.0, 0.0, 8.999999999999999e-08)"
2025/07/05/17:49:35.151540,10317,1751712575,161275008,base_link,0.0,0.0,0.0,0.0,"(-1.0, 0.0, 0.0, 0.0, 0.0, 0.0, 0.0, 0.0, 0.0)",0.092,-0.002999999999999982,0.15,"(1.2184696791468346e-07, 0.0, 0.0, 0.0, 1.2184696791468346e-07, 0.0, 0.0, 0.0, 1.2184696791468346e-07)",-1.1964113,1.0983448000000013,9.75761675,"(8.999999999999999e-08, 0.0, 0.0, 0.0, 8.999999999999999e-08, 0.0, 0.0, 0.0, 8.999999999999999e-08)"
2025/07/05/17:49:35.251486,10318,1751712575,261308008,base_link,0.0,0.0,0.0,0.0,"(-1.0, 0.0, 0.0, 0.0, 0.0, 0.0, 0.0, 0.0, 0.0)",0.214,0.006000000000000007,0.054,"(1.2184696791468346e-07, 0.0, 0.0, 0.0, 1.2184696791468346e-07, 0.0, 0.0, 0.0, 1.2184696791468346e-07)",-1.1179581,0.5491724000000012,9.6497436,"(8.999999999999999e-08, 0.0, 0.0, 0.0, 8.999999999999999e-08, 0.0, 0.0, 0.0, 8.999999999999999e-08)"
2025/07/05/17:49:35.351367,10319,1751712575,360562008,base_link,0.0,0.0,0.0,0.0,"(-1.0, 0.0, 0.0, 0.0, 0.0, 0.0, 0.0, 0.0, 0.0)",0.092,0.0009999999999999994,-0.006,"(1.2184696791468346e-07, 0.0, 0.0, 0.0, 1.2184696791468346e-07, 0.0, 0.0, 0.0, 1.2184696791468346e-07)",-1.1571847,0.8139519500000013,9.7085835,"(8.999999999999999e-08, 0.0, 0.0, 0.0, 8.999999999999999e-08, 0.0, 0.0, 0.0, 8.999999999999999e-08)"
2025/07/05/17:49:35.511734,10320,1751712575,521705008,base_link,0.0,0.0,0.0,0.0,"(-1.0, 0.0, 0.0, 0.0, 0.0, 0.0, 0.0, 0.0, 0.0)",0.047,-0.002000000000000022,-0.182,"(1.2184696791468346e-07, 0.0, 0.0, 0.0, 1.2184696791468346e-07, 0.0, 0.0, 0.0, 1.2184696791468346e-07)",-1.24544455,0.7943386500000013,9.7085835,"(8.999999999999999e-08, 0.0, 0.0, 0.0, 8.999999999999999e-08, 0.0, 0.0, 0.0, 8.999999999999999e-08)"
2025/07/05/17:49:35.612102,10321,1751712575,621734008,base_link,0.0,0.0,0.0,0.0,"(-1.0, 0.0, 0.0, 0.0, 0.0, 0.0, 0.0, 0.0, 0.0)",0.024,-0.001000000000000032,-0.261,"(1.2184696791468346e-07, 0.0, 0.0, 0.0, 1.2184696791468346e-07, 0.0, 0.0, 0.0, 1.2184696791468346e-07)",-1.26505785,0.5982056500000011,9.62032365,"(8.999999999999999e-08, 0.0, 0.0, 0.0, 8.999999999999999e-08, 0.0, 0.0, 0.0, 8.999999999999999e-08)"
2025/07/05/17:49:35.672075,10322,1751712575,681696008,base_link,0.0,0.0,0.0,0.0,"(-1.0, 0.0, 0.0, 0.0, 0.0, 0.0, 0.0, 0.0, 0.0)",-0.015,-0.007000000000000036,-0.29,"(1.2184696791468346e-07, 0.0, 0.0, 0.0, 1.2184696791468346e-07, 0.0, 0.0, 0.0, 1.2184696791468346e-07)",-1.20621795,0.5001391500000012,9.6693569,"(8.999999999999999e-08, 0.0, 0.0, 0.0, 8.999999999999999e-08, 0.0, 0.0, 0.0, 8.999999999999999e-08)"
2025/07/05/17:49:35.770876,10323,1751712575,780928008,base_link,0.0,0.0,0.0,0.0,"(-1.0, 0.0, 0.0, 0.0, 0.0, 0.0, 0.0, 0.0, 0.0)",-0.045,-0.02000000000000004,-0.321,"(1.2184696791468346e-07, 0.0, 0.0, 0.0, 1.2184696791468346e-07, 0.0, 0.0, 0.0, 1.2184696791468346e-07)",-1.2160246,0.3040061500000012,9.639936950000001,"(8.999999999999999e-08, 0.0, 0.0, 0.0, 8.999999999999999e-08, 0.0, 0.0, 0.0, 8.999999999999999e-08)"
2025/07/05/17:49:35.871727,10324,1751712575,880887008,base_link,0.0,0.0,0.0,0.0,"(-1.0, 0.0, 0.0, 0.0, 0.0, 0.0, 0.0, 0.0, 0.0)",-0.022,-0.029000000000000043,-0.327,"(1.2184696791468346e-07, 0.0, 0.0, 0.0, 1.2184696791468346e-07, 0.0, 0.0, 0.0, 1.2184696791468346e-07)",-1.176798,-0.1078731499999988,9.7478101,"(8.999999999999999e-08, 0.0, 0.0, 0.0, 8.999999999999999e-08, 0.0, 0.0, 0.0, 8.999999999999999e-08)"
2025/07/05/17:49:35.991543,10325,1751712576,1734008,base_link,0.0,0.0,0.0,0.0,"(-1.0, 0.0, 0.0, 0.0, 0.0, 0.0, 0.0, 0.0, 0.0)",-0.08700000000000001,-0.02100000000000003,-0.226,"(1.2184696791468346e-07, 0.0, 0.0, 0.0, 1.2184696791468346e-07, 0.0, 0.0, 0.0, 1.2184696791468346e-07)",-1.18660465,-1.2552511999999987,9.7085835,"(8.999999999999999e-08, 0.0, 0.0, 0.0, 8.999999999999999e-08, 0.0, 0.0, 0.0, 8.999999999999999e-08)"
2025/07/05/17:49:36.071522,10326,1751712576,80683008,base_link,0.0,0.0,0.0,0.0,"(-1.0, 0.0, 0.0, 0.0, 0.0, 0.0, 0.0, 0.0, 0.0)",-0.339,-0.014000000000000005,-0.047,"(1.2184696791468346e-07, 0.0, 0.0, 0.0, 1.2184696791468346e-07, 0.0, 0.0, 0.0, 1.2184696791468346e-07)",-1.372931,-0.9316317499999988,9.75761675,"(8.999999999999999e-08, 0.0, 0.0, 0.0, 8.999999999999999e-08, 0.0, 0.0, 0.0, 8.999999999999999e-08)"
2025/07/05/17:49:36.151930,10327,1751712576,160892008,base_link,0.0,0.0,0.0,0.0,"(-1.0, 0.0, 0.0, 0.0, 0.0, 0.0, 0.0, 0.0, 0.0)",-0.361,-0.0029999999999999884,0.094,"(1.2184696791468346e-07, 0.0, 0.0, 0.0, 1.2184696791468346e-07, 0.0, 0.0, 0.0, 1.2184696791468346e-07)",-1.30428445,-0.5295590999999988,9.73800345,"(8.999999999999999e-08, 0.0, 0.0, 0.0, 8.999999999999999e-08, 0.0, 0.0, 0.0, 8.999999999999999e-08)"
2025/07/05/17:49:36.231673,10328,1751712576,241341008,base_link,0.0,0.0,0.0,0.0,"(-1.0, 0.0, 0.0, 0.0, 0.0, 0.0, 0.0, 0.0, 0.0)",-0.101,0.0030000000000000204,0.168,"(1.2184696791468346e-07, 0.0, 0.0, 0.0, 1.2184696791468346e-07, 0.0, 0.0, 0.0, 1.2184696791468346e-07)",-1.2356379,-0.5589790499999988,9.58109705,"(8.999999999999999e-08, 0.0, 0.0, 0.0, 8.999999999999999e-08, 0.0, 0.0, 0.0, 8.999999999999999e-08)"
2025/07/05/17:49:36.331322,10329,1751712576,341377008,base_link,0.0,0.0,0.0,0.0,"(-1.0, 0.0, 0.0, 0.0, 0.0, 0.0, 0.0, 0.0, 0.0)",0.202,3.08610993385133e-17,0.252,"(1.2184696791468346e-07, 0.0, 0.0, 0.0, 1.2184696791468346e-07, 0.0, 0.0, 0.0, 1.2184696791468346e-07)",-1.2160246,-0.25497289999999884,9.6497436,"(8.999999999999999e-08, 0.0, 0.0, 0.0, 8.999999999999999e-08, 0.0, 0.0, 0.0, 8.999999999999999e-08)"
2025/07/05/17:49:36.531516,10330,1751712576,540763008,base_link,0.0,0.0,0.0,0.0,"(-1.0, 0.0, 0.0, 0.0, 0.0, 0.0, 0.0, 0.0, 0.0)",0.20500000000000002,-0.01099999999999996,0.319,"(1.2184696791468346e-07, 0.0, 0.0, 0.0, 1.2184696791468346e-07, 0.0, 0.0, 0.0, 1.2184696791468346e-07)",-1.22583125,0.27458620000000117,9.71839015,"(8.999999999999999e-08, 0.0, 0.0, 0.0, 8.999999999999999e-08, 0.0, 0.0, 0.0, 8.999999999999999e-08)"
2025/07/05/17:49:36.650878,10331,1751712576,660605008,base_link,0.0,0.0,0.0,0.0,"(-1.0, 0.0, 0.0, 0.0, 0.0, 0.0, 0.0, 0.0, 0.0)",0.006,-0.009999999999999964,0.297,"(1.2184696791468346e-07, 0.0, 0.0, 0.0, 1.2184696791468346e-07, 0.0, 0.0, 0.0, 1.2184696791468346e-07)",-1.24544455,0.43149260000000117,9.73800345,"(8.999999999999999e-08, 0.0, 0.0, 0.0, 8.999999999999999e-08, 0.0, 0.0, 0.0, 8.999999999999999e-08)"
2025/07/05/17:49:36.712198,10332,1751712576,722154008,base_link,0.0,0.0,0.0,0.0,"(-1.0, 0.0, 0.0, 0.0, 0.0, 0.0, 0.0, 0.0, 0.0)",-0.081,-0.004999999999999965,0.28300000000000003,"(1.2184696791468346e-07, 0.0, 0.0, 0.0, 1.2184696791468346e-07, 0.0, 0.0, 0.0, 1.2184696791468346e-07)",-1.22583125,0.37265270000000117,9.71839015,"(8.999999999999999e-08, 0.0, 0.0, 0.0, 8.999999999999999e-08, 0.0, 0.0, 0.0, 8.999999999999999e-08)"
2025/07/05/17:49:36.812771,10333,1751712576,822582008,base_link,0.0,0.0,0.0,0.0,"(-1.0, 0.0, 0.0, 0.0, 0.0, 0.0, 0.0, 0.0, 0.0)",-0.151,0.004000000000000033,0.272,"(1.2184696791468346e-07, 0.0, 0.0, 0.0, 1.2184696791468346e-07, 0.0, 0.0, 0.0, 1.2184696791468346e-07)",-1.22583125,0.3628460500000012,9.69877685,"(8.999999999999999e-08, 0.0, 0.0, 0.0, 8.999999999999999e-08, 0.0, 0.0, 0.0, 8.999999999999999e-08)"
2025/07/05/17:49:36.911738,10334,1751712576,921703008,base_link,0.0,0.0,0.0,0.0,"(-1.0, 0.0, 0.0, 0.0, 0.0, 0.0, 0.0, 0.0, 0.0)",-0.114,0.005000000000000034,0.277,"(1.2184696791468346e-07, 0.0, 0.0, 0.0, 1.2184696791468346e-07, 0.0, 0.0, 0.0, 1.2184696791468346e-07)",-1.24544455,0.25497290000000117,9.67916355,"(8.999999999999999e-08, 0.0, 0.0, 0.0, 8.999999999999999e-08, 0.0, 0.0, 0.0, 8.999999999999999e-08)"
2025/07/05/17:49:37.034057,10335,1751712577,43591008,base_link,0.0,0.0,0.0,0.0,"(-1.0, 0.0, 0.0, 0.0, 0.0, 0.0, 0.0, 0.0, 0.0)",-0.005,3.6739403974420595e-17,0.3,"(1.2184696791468346e-07, 0.0, 0.0, 0.0, 1.2184696791468346e-07, 0.0, 0.0, 0.0, 1.2184696791468346e-07)",-1.28467115,0.1470997500000012,9.65955025,"(8.999999999999999e-08, 0.0, 0.0, 0.0, 8.999999999999999e-08, 0.0, 0.0, 0.0, 8.999999999999999e-08)"
2025/07/05/17:49:37.131004,10336,1751712577,140605008,base_link,0.0,0.0,0.0,0.0,"(-1.0, 0.0, 0.0, 0.0, 0.0, 0.0, 0.0, 0.0, 0.0)",0.049,-0.003999999999999961,0.32,"(1.2184696791468346e-07, 0.0, 0.0, 0.0, 1.2184696791468346e-07, 0.0, 0.0, 0.0, 1.2184696791468346e-07)",-1.2356379,0.3040061500000012,9.639936950000001,"(8.999999999999999e-08, 0.0, 0.0, 0.0, 8.999999999999999e-08, 0.0, 0.0, 0.0, 8.999999999999999e-08)"
2025/07/05/17:49:37.212308,10337,1751712577,222459008,base_link,0.0,0.0,0.0,0.0,"(-1.0, 0.0, 0.0, 0.0, 0.0, 0.0, 0.0, 0.0, 0.0)",0.055,-0.006999999999999961,0.32,"(1.2184696791468346e-07, 0.0, 0.0, 0.0, 1.2184696791468346e-07, 0.0, 0.0, 0.0, 1.2184696791468346e-07)",-1.26505785,0.4020726500000012,9.6693569,"(8.999999999999999e-08, 0.0, 0.0, 0.0, 8.999999999999999e-08, 0.0, 0.0, 0.0, 8.999999999999999e-08)"
2025/07/05/17:49:37.292475,10338,1751712577,302263008,base_link,0.0,0.0,0.0,0.0,"(-1.0, 0.0, 0.0, 0.0, 0.0, 0.0, 0.0, 0.0, 0.0)",0.032,-0.005999999999999961,0.317,"(1.2184696791468346e-07, 0.0, 0.0, 0.0, 1.2184696791468346e-07, 0.0, 0.0, 0.0, 1.2184696791468346e-07)",-1.2552512,0.3628460500000012,9.6889702,"(8.999999999999999e-08, 0.0, 0.0, 0.0, 8.999999999999999e-08, 0.0, 0.0, 0.0, 8.999999999999999e-08)"
2025/07/05/17:49:37.393281,10339,1751712577,403017008,base_link,0.0,0.0,0.0,0.0,"(-1.0, 0.0, 0.0, 0.0, 0.0, 0.0, 0.0, 0.0, 0.0)",-0.008,3.88213035329711e-17,0.317,"(1.2184696791468346e-07, 0.0, 0.0, 0.0, 1.2184696791468346e-07, 0.0, 0.0, 0.0, 1.2184696791468346e-07)",-1.26505785,0.5589790500000011,9.6889702,"(8.999999999999999e-08, 0.0, 0.0, 0.0, 8.999999999999999e-08, 0.0, 0.0, 0.0, 8.999999999999999e-08)"
2025/07/05/17:49:37.551309,10340,1751712577,561136008,base_link,0.0,0.0,0.0,0.0,"(-1.0, 0.0, 0.0, 0.0, 0.0, 0.0, 0.0, 0.0, 0.0)",-0.026000000000000002,0.005000000000000036,0.293,"(1.2184696791468346e-07, 0.0, 0.0, 0.0, 1.2184696791468346e-07, 0.0, 0.0, 0.0, 1.2184696791468346e-07)",-1.2356379,0.6472389000000013,9.69877685,"(8.999999999999999e-08, 0.0, 0.0, 0.0, 8.999999999999999e-08, 0.0, 0.0, 0.0, 8.999999999999999e-08)"
2025/07/05/17:49:37.651598,10341,1751712577,660992008,base_link,0.0,0.0,0.0,0.0,"(-1.0, 0.0, 0.0, 0.0, 0.0, 0.0, 0.0, 0.0, 0.0)",0.028,0.002000000000000029,0.23600000000000002,"(1.2184696791468346e-07, 0.0, 0.0, 0.0, 1.2184696791468346e-07, 0.0, 0.0, 0.0, 1.2184696791468346e-07)",-1.1964113,1.5984839500000012,9.6693569,"(8.999999999999999e-08, 0.0, 0.0, 0.0, 8.999999999999999e-08, 0.0, 0.0, 0.0, 8.999999999999999e-08)"
2025/07/05/17:49:37.731256,10342,1751712577,741343008,base_link,0.0,0.0,0.0,0.0,"(-1.0, 0.0, 0.0, 0.0, 0.0, 0.0, 0.0, 0.0, 0.0)",0.233,0.015000000000000013,0.113,"(1.2184696791468346e-07, 0.0, 0.0, 0.0, 1.2184696791468346e-07, 0.0, 0.0, 0.0, 1.2184696791468346e-07)",-1.34351105,0.9806650000000011,9.6693569,"(8.999999999999999e-08, 0.0, 0.0, 0.0, 8.999999999999999e-08, 0.0, 0.0, 0.0, 8.999999999999999e-08)"
2025/07/05/17:49:37.831174,10343,1751712577,841301008,base_link,0.0,0.0,0.0,0.0,"(-1.0, 0.0, 0.0, 0.0, 0.0, 0.0, 0.0, 0.0, 0.0)",0.277,0.023999999999999997,-0.015000000000000003,"(1.2184696791468346e-07, 0.0, 0.0, 0.0, 1.2184696791468346e-07, 0.0, 0.0, 0.0, 1.2184696791468346e-07)",-1.3925443,1.010084950000001,9.5909037,"(8.999999999999999e-08, 0.0, 0.0, 0.0, 8.999999999999999e-08, 0.0, 0.0, 0.0, 8.999999999999999e-08)"
2025/07/05/17:49:37.971098,10344,1751712577,981048008,base_link,0.0,0.0,0.0,0.0,"(-1.0, 0.0, 0.0, 0.0, 0.0, 0.0, 0.0, 0.0, 0.0)",0.021,0.006999999999999981,-0.153,"(1.2184696791468346e-07, 0.0, 0.0, 0.0, 1.2184696791468346e-07, 0.0, 0.0, 0.0, 1.2184696791468346e-07)",-1.36312435,1.166991350000001,9.610517,"(8.999999999999999e-08, 0.0, 0.0, 0.0, 8.999999999999999e-08, 0.0, 0.0, 0.0, 8.999999999999999e-08)"
2025/07/05/17:49:38.034208,10345,1751712578,44204008,base_link,0.0,0.0,0.0,0.0,"(-1.0, 0.0, 0.0, 0.0, 0.0, 0.0, 0.0, 0.0, 0.0)",-0.073,-2.5350188742350214e-17,-0.20700000000000002,"(1.2184696791468346e-07, 0.0, 0.0, 0.0, 1.2184696791468346e-07, 0.0, 0.0, 0.0, 1.2184696791468346e-07)",-1.3337044,0.8433719000000012,9.58109705,"(8.999999999999999e-08, 0.0, 0.0, 0.0, 8.999999999999999e-08, 0.0, 0.0, 0.0, 8.999999999999999e-08)"
2025/07/05/17:49:38.131279,10346,1751712578,141375008,base_link,0.0,0.0,0.0,0.0,"(-1.0, 0.0, 0.0, 0.0, 0.0, 0.0, 0.0, 0.0, 0.0)",-0.137,-0.018000000000000037,-0.28700000000000003,"(1.2184696791468346e-07, 0.0, 0.0, 0.0, 1.2184696791468346e-07, 0.0, 0.0, 0.0, 1.2184696791468346e-07)",-1.3533177,0.5001391500000012,9.5320638,"(8.999999999999999e-08, 0.0, 0.0, 0.0, 8.999999999999999e-08, 0.0, 0.0, 0.0, 8.999999999999999e-08)"
2025/07/05/17:49:38.231213,10347,1751712578,241343008,base_link,0.0,0.0,0.0,0.0,"(-1.0, 0.0, 0.0, 0.0, 0.0, 0.0, 0.0, 0.0, 0.0)",-0.138,-0.036000000000000046,-0.314,"(1.2184696791468346e-07, 0.0, 0.0, 0.0, 1.2184696791468346e-07, 0.0, 0.0, 0.0, 1.2184696791468346e-07)",-1.32389775,0.1863263500000012,9.67916355,"(8.999999999999999e-08, 0.0, 0.0, 0.0, 8.999999999999999e-08, 0.0, 0.0, 0.0, 8.999999999999999e-08)"
2025/07/05/17:49:38.351216,10348,1751712578,360686008,base_link,0.0,0.0,0.0,0.0,"(-1.0, 0.0, 0.0, 0.0, 0.0, 0.0, 0.0, 0.0, 0.0)",-0.081,-0.02500000000000004,-0.298,"(1.2184696791468346e-07, 0.0, 0.0, 0.0, 1.2184696791468346e-07, 0.0, 0.0, 0.0, 1.2184696791468346e-07)",-1.26505785,-0.11767979999999882,9.6889702,"(8.999999999999999e-08, 0.0, 0.0, 0.0, 8.999999999999999e-08, 0.0, 0.0, 0.0, 8.999999999999999e-08)"
2025/07/05/17:49:38.512193,10349,1751712578,522013008,base_link,0.0,0.0,0.0,0.0,"(-1.0, 0.0, 0.0, 0.0, 0.0, 0.0, 0.0, 0.0, 0.0)",0.053,-0.013000000000000032,-0.248,"(1.2184696791468346e-07, 0.0, 0.0, 0.0, 1.2184696791468346e-07, 0.0, 0.0, 0.0, 1.2184696791468346e-07)",-1.30428445,1.187757602499695e-15,9.69877685,"(8.999999999999999e-08, 0.0, 0.0, 0.0, 8.999999999999999e-08, 0.0, 0.0, 0.0, 8.999999999999999e-08)"
2025/07/05/17:49:38.615544,10350,1751712578,624727008,base_link,0.0,0.0,0.0,0.0,"(-1.0, 0.0, 0.0, 0.0, 0.0, 0.0, 0.0, 0.0, 0.0)",0.11,-0.008000000000000028,-0.232,"(1.2184696791468346e-07, 0.0, 0.0, 0.0, 1.2184696791468346e-07, 0.0, 0.0, 0.0, 1.2184696791468346e-07)",-1.28467115,-0.039226599999998814,9.6889702,"(8.999999999999999e-08, 0.0, 0.0, 0.0, 8.999999999999999e-08, 0.0, 0.0, 0.0, 8.999999999999999e-08)"
2025/07/05/17:49:38.692310,10351,1751712578,702536008,base_link,0.0,0.0,0.0,0.0,"(-1.0, 0.0, 0.0, 0.0, 0.0, 0.0, 0.0, 0.0, 0.0)",0.094,-0.005000000000000028,-0.224,"(1.2184696791468346e-07, 0.0, 0.0, 0.0, 1.2184696791468346e-07, 0.0, 0.0, 0.0, 1.2184696791468346e-07)",-1.28467115,0.11767980000000118,9.67916355,"(8.999999999999999e-08, 0.0, 0.0, 0.0, 8.999999999999999e-08, 0.0, 0.0, 0.0, 8.999999999999999e-08)"
2025/07/05/17:49:38.793553,10352,1751712578,802926008,base_link,0.0,0.0,0.0,0.0,"(-1.0, 0.0, 0.0, 0.0, 0.0, 0.0, 0.0, 0.0, 0.0)",0.055,-0.002000000000000028,-0.226,"(1.2184696791468346e-07, 0.0, 0.0, 0.0, 1.2184696791468346e-07, 0.0, 0.0, 0.0, 1.2184696791468346e-07)",-1.26505785,0.05883990000000119,9.6889702,"(8.999999999999999e-08, 0.0, 0.0, 0.0, 8.999999999999999e-08, 0.0, 0.0, 0.0, 8.999999999999999e-08)"
2025/07/05/17:49:38.891668,10353,1751712578,901678008,base_link,0.0,0.0,0.0,0.0,"(-1.0, 0.0, 0.0, 0.0, 0.0, 0.0, 0.0, 0.0, 0.0)",0.011,-0.009000000000000027,-0.211,"(1.2184696791468346e-07, 0.0, 0.0, 0.0, 1.2184696791468346e-07, 0.0, 0.0, 0.0, 1.2184696791468346e-07)",-1.2356379,-0.49033249999999884,9.6497436,"(8.999999999999999e-08, 0.0, 0.0, 0.0, 8.999999999999999e-08, 0.0, 0.0, 0.0, 8.999999999999999e-08)"
2025/07/05/17:49:38.993397,10354,1751712579,2628008,base_link,0.0,0.0,0.0,0.0,"(-1.0, 0.0, 0.0, 0.0, 0.0, 0.0, 0.0, 0.0, 0.0)",-0.227,-0.02200000000000001,-0.092,"(1.2184696791468346e-07, 0.0, 0.0, 0.0, 1.2184696791468346e-07, 0.0, 0.0, 0.0, 1.2184696791468346e-07)",-1.3925443,-1.8436501999999988,9.69877685,"(8.999999999999999e-08, 0.0, 0.0, 0.0, 8.999999999999999e-08, 0.0, 0.0, 0.0, 8.999999999999999e-08)"
2025/07/05/17:49:39.091992,10355,1751712579,101922008,base_link,0.0,0.0,0.0,0.0,"(-1.0, 0.0, 0.0, 0.0, 0.0, 0.0, 0.0, 0.0, 0.0)",-0.451,-0.017999999999999988,0.10200000000000001,"(1.2184696791468346e-07, 0.0, 0.0, 0.0, 1.2184696791468346e-07, 0.0, 0.0, 0.0, 1.2184696791468346e-07)",-1.3533177,-0.5982056499999988,9.7085835,"(8.999999999999999e-08, 0.0, 0.0, 0.0, 8.999999999999999e-08, 0.0, 0.0, 0.0, 8.999999999999999e-08)"
2025/07/05/17:49:39.192472,10356,1751712579,202147008,base_link,0.0,0.0,0.0,0.0,"(-1.0, 0.0, 0.0, 0.0, 0.0, 0.0, 0.0, 0.0, 0.0)",-0.168,-0.0019999999999999745,0.209,"(1.2184696791468346e-07, 0.0, 0.0, 0.0, 1.2184696791468346e-07, 0.0, 0.0, 0.0, 1.2184696791468346e-07)",-1.3533177,-0.6472388999999988,9.639936950000001,"(8.999999999999999e-08, 0.0, 0.0, 0.0, 8.999999999999999e-08, 0.0, 0.0, 0.0, 8.999999999999999e-08)"
2025/07/05/17:49:39.291612,10357,1751712579,301957008,base_link,0.0,0.0,0.0,0.0,"(-1.0, 0.0, 0.0, 0.0, 0.0, 0.0, 0.0, 0.0, 0.0)",0.192,0.0040000000000000365,0.297,"(1.2184696791468346e-07, 0.0, 0.0, 0.0, 1.2184696791468346e-07, 0.0, 0.0, 0.0, 1.2184696791468346e-07)",-1.32389775,-0.39226599999999884,9.62032365,"(8.999999999999999e-08, 0.0, 0.0, 0.0, 8.999999999999999e-08, 0.0, 0.0, 0.0, 8.999999999999999e-08)"
2025/07/05/17:49:39.433943,10358,1751712579,443669008,base_link,0.0,0.0,0.0,0.0,"(-1.0, 0.0, 0.0, 0.0, 0.0, 0.0, 0.0, 0.0, 0.0)",0.341,-0.009999999999999957,0.359,"(1.2184696791468346e-07, 0.0, 0.0, 0.0, 1.2184696791468346e-07, 0.0, 0.0, 0.0, 1.2184696791468346e-07)",-1.32389775,0.11767980000000118,9.6301303,"(8.999999999999999e-08, 0.0, 0.0, 0.0, 8.999999999999999e-08, 0.0, 0.0, 0.0, 8.999999999999999e-08)"
2025/07/05/17:49:39.551199,10359,1751712579,560695008,base_link,0.0,0.0,0.0,0.0,"(-1.0, 0.0, 0.0, 0.0, 0.0, 0.0, 0.0, 0.0, 0.0)",0.149,-0.009999999999999957,0.35000000000000003,"(1.2184696791468346e-07, 0.0, 0.0, 0.0, 1.2184696791468346e-07, 0.0, 0.0, 0.0, 1.2184696791468346e-07)",-1.26505785,0.4216859500000012,9.67916355,"(8.999999999999999e-08, 0.0, 0.0, 0.0, 8.999999999999999e-08, 0.0, 0.0, 0.0, 8.999999999999999e-08)"
2025/07/05/17:49:39.651726,10360,1751712579,660673008,base_link,0.0,0.0,0.0,0.0,"(-1.0, 0.0, 0.0, 0.0, 0.0, 0.0, 0.0, 0.0, 0.0)",-0.029,-0.0009999999999999601,0.326,"(1.2184696791468346e-07, 0.0, 0.0, 0.0, 1.2184696791468346e-07, 0.0, 0.0, 0.0, 1.2184696791468346e-07)",-1.28467115,0.41187930000000117,9.71839015,"(8.999999999999999e-08, 0.0, 0.0, 0.0, 8.999999999999999e-08, 0.0, 0.0, 0.0, 8.999999999999999e-08)"
2025/07/05/17:49:39.731310,10361,1751712579,741120008,base_link,0.0,0.0,0.0,0.0,"(-1.0, 0.0, 0.0, 0.0, 0.0, 0.0, 0.0, 0.0, 0.0)",-0.121,0.0010000000000000382,0.311,"(1.2184696791468346e-07, 0.0, 0.0, 0.0, 1.2184696791468346e-07, 0.0, 0.0, 0.0, 1.2184696791468346e-07)",-1.26505785,0.39226600000000117,9.6497436,"(8.999999999999999e-08, 0.0, 0.0, 0.0, 8.999999999999999e-08, 0.0, 0.0, 0.0, 8.999999999999999e-08)"
2025/07/05/17:49:39.834165,10362,1751712579,844110008,base_link,0.0,0.0,0.0,0.0,"(-1.0, 0.0, 0.0, 0.0, 0.0, 0.0, 0.0, 0.0, 0.0)",-0.136,-0.002999999999999964,0.295,"(1.2184696791468346e-07, 0.0, 0.0, 0.0, 1.2184696791468346e-07, 0.0, 0.0, 0.0, 1.2184696791468346e-07)",-1.24544455,0.8237586000000012,9.69877685,"(8.999999999999999e-08, 0.0, 0.0, 0.0, 8.999999999999999e-08, 0.0, 0.0, 0.0, 8.999999999999999e-08)"
2025/07/05/17:49:39.951343,10363,1751712579,960649008,base_link,0.0,0.0,0.0,0.0,"(-1.0, 0.0, 0.0, 0.0, 0.0, 0.0, 0.0, 0.0, 0.0)",0.155,0.0010000000000000198,0.162,"(1.2184696791468346e-07, 0.0, 0.0, 0.0, 1.2184696791468346e-07, 0.0, 0.0, 0.0, 1.2184696791468346e-07)",-1.3337044,1.323897750000001,9.6889702,"(8.999999999999999e-08, 0.0, 0.0, 0.0, 8.999999999999999e-08, 0.0, 0.0, 0.0, 8.999999999999999e-08)"
2025/07/05/17:49:40.034277,10364,1751712580,44225008,base_link,0.0,0.0,0.0,0.0,"(-1.0, 0.0, 0.0, 0.0, 0.0, 0.0, 0.0, 0.0, 0.0)",0.386,0.019000000000000003,0.041,"(1.2184696791468346e-07, 0.0, 0.0, 0.0, 1.2184696791468346e-07, 0.0, 0.0, 0.0, 1.2184696791468346e-07)",-1.52003075,1.480804150000001,9.7478101,"(8.999999999999999e-08, 0.0, 0.0, 0.0, 8.999999999999999e-08, 0.0, 0.0, 0.0, 8.999999999999999e-08)"
2025/07/05/17:49:40.151612,10365,1751712580,160555008,base_link,0.0,0.0,0.0,0.0,"(-1.0, 0.0, 0.0, 0.0, 0.0, 0.0, 0.0, 0.0, 0.0)",0.34500000000000003,0.023999999999999987,-0.127,"(1.2184696791468346e-07, 0.0, 0.0, 0.0, 1.2184696791468346e-07, 0.0, 0.0, 0.0, 1.2184696791468346e-07)",-1.38273765,0.8924051500000011,9.5712904,"(8.999999999999999e-08, 0.0, 0.0, 0.0, 8.999999999999999e-08, 0.0, 0.0, 0.0, 8.999999999999999e-08)"
2025/07/05/17:49:40.252917,10366,1751712580,260641008,base_link,0.0,0.0,0.0,0.0,"(-1.0, 0.0, 0.0, 0.0, 0.0, 0.0, 0.0, 0.0, 0.0)",-0.03,-0.0010000000000000252,-0.20500000000000002,"(1.2184696791468346e-07, 0.0, 0.0, 0.0, 1.2184696791468346e-07, 0.0, 0.0, 0.0, 1.2184696791468346e-07)",-1.2748645,0.1765197000000012,9.54187045,"(8.999999999999999e-08, 0.0, 0.0, 0.0, 8.999999999999999e-08, 0.0, 0.0, 0.0, 8.999999999999999e-08)"
2025/07/05/17:49:40.351713,10367,1751712580,360713008,base_link,0.0,0.0,0.0,0.0,"(-1.0, 0.0, 0.0, 0.0, 0.0, 0.0, 0.0, 0.0, 0.0)",-0.47700000000000004,-0.04000000000000002,-0.153,"(1.2184696791468346e-07, 0.0, 0.0, 0.0, 1.2184696791468346e-07, 0.0, 0.0, 0.0, 1.2184696791468346e-07)",-1.3337044,-0.37265269999999884,9.65955025,"(8.999999999999999e-08, 0.0, 0.0, 0.0, 8.999999999999999e-08, 0.0, 0.0, 0.0, 8.999999999999999e-08)"
2025/07/05/17:49:40.511986,10368,1751712580,522000008,base_link,0.0,0.0,0.0,0.0,"(-1.0, 0.0, 0.0, 0.0, 0.0, 0.0, 0.0, 0.0, 0.0)",-0.579,-0.043999999999999984,0.106,"(1.2184696791468346e-07, 0.0, 0.0, 0.0, 1.2184696791468346e-07, 0.0, 0.0, 0.0, 1.2184696791468346e-07)",-1.3337044,-0.4412992499999988,9.6889702,"(8.999999999999999e-08, 0.0, 0.0, 0.0, 8.999999999999999e-08, 0.0, 0.0, 0.0, 8.999999999999999e-08)"
2025/07/05/17:49:40.593283,10369,1751712580,602462008,base_link,0.0,0.0,0.0,0.0,"(-1.0, 0.0, 0.0, 0.0, 0.0, 0.0, 0.0, 0.0, 0.0)",-0.186,-0.023999999999999976,0.194,"(1.2184696791468346e-07, 0.0, 0.0, 0.0, 1.2184696791468346e-07, 0.0, 0.0, 0.0, 1.2184696791468346e-07)",-1.32389775,-0.5393657499999989,9.5712904,"(8.999999999999999e-08, 0.0, 0.0, 0.0, 8.999999999999999e-08, 0.0, 0.0, 0.0, 8.999999999999999e-08)"
2025/07/05/17:49:40.693153,10370,1751712580,701633008,base_link,0.0,0.0,0.0,0.0,"(-1.0, 0.0, 0.0, 0.0, 0.0, 0.0, 0.0, 0.0, 0.0)",0.274,-0.008999999999999965,0.292,"(1.2184696791468346e-07, 0.0, 0.0, 0.0, 1.2184696791468346e-07, 0.0, 0.0, 0.0, 1.2184696791468346e-07)",-1.30428445,-0.29419949999999884,9.6497436,"(8.999999999999999e-08, 0.0, 0.0, 0.0, 8.999999999999999e-08, 0.0, 0.0, 0.0, 8.999999999999999e-08)"
2025/07/05/17:49:40.792377,10371,1751712580,802411008,base_link,0.0,0.0,0.0,0.0,"(-1.0, 0.0, 0.0, 0.0, 0.0, 0.0, 0.0, 0.0, 0.0)",0.442,4.274017329024263e-17,0.34900000000000003,"(1.2184696791468346e-07, 0.0, 0.0, 0.0, 1.2184696791468346e-07, 0.0, 0.0, 0.0, 1.2184696791468346e-07)",-1.3140911,0.10787315000000118,9.6693569,"(8.999999999999999e-08, 0.0, 0.0, 0.0, 8.999999999999999e-08, 0.0, 0.0, 0.0, 8.999999999999999e-08)"
2025/07/05/17:49:40.912381,10372,1751712580,921982008,base_link,0.0,0.0,0.0,0.0,"(-1.0, 0.0, 0.0, 0.0, 0.0, 0.0, 0.0, 0.0, 0.0)",0.23900000000000002,0.004000000000000042,0.34,"(1.2184696791468346e-07, 0.0, 0.0, 0.0, 1.2184696791468346e-07, 0.0, 0.0, 0.0, 1.2184696791468346e-07)",-1.28467115,0.4805258500000012,9.65955025,"(8.999999999999999e-08, 0.0, 0.0, 0.0, 8.999999999999999e-08, 0.0, 0.0, 0.0, 8.999999999999999e-08)"
2025/07/05/17:49:41.012989,10373,1751712581,22485008,base_link,0.0,0.0,0.0,0.0,"(-1.0, 0.0, 0.0, 0.0, 0.0, 0.0, 0.0, 0.0, 0.0)",-0.02,-0.005999999999999963,0.303,"(1.2184696791468346e-07, 0.0, 0.0, 0.0, 1.2184696791468346e-07, 0.0, 0.0, 0.0, 1.2184696791468346e-07)",-1.32389775,0.5197524500000011,9.67916355,"(8.999999999999999e-08, 0.0, 0.0, 0.0, 8.999999999999999e-08, 0.0, 0.0, 0.0, 8.999999999999999e-08)"
2025/07/05/17:49:41.092623,10374,1751712581,102220008,base_link,0.0,0.0,0.0,0.0,"(-1.0, 0.0, 0.0, 0.0, 0.0, 0.0, 0.0, 0.0, 0.0)",-0.163,-0.010999999999999965,0.281,"(1.2184696791468346e-07, 0.0, 0.0, 0.0, 1.2184696791468346e-07, 0.0, 0.0, 0.0, 1.2184696791468346e-07)",-1.30428445,0.4805258500000012,9.73800345,"(8.999999999999999e-08, 0.0, 0.0, 0.0, 8.999999999999999e-08, 0.0, 0.0, 0.0, 8.999999999999999e-08)"
2025/07/05/17:49:41.192218,10375,1751712581,202064008,base_link,0.0,0.0,0.0,0.0,"(-1.0, 0.0, 0.0, 0.0, 0.0, 0.0, 0.0, 0.0, 0.0)",-0.202,3.282053421714907e-17,0.268,"(1.2184696791468346e-07, 0.0, 0.0, 0.0, 1.2184696791468346e-07, 0.0, 0.0, 0.0, 1.2184696791468346e-07)",-1.32389775,0.39226600000000117,9.7085835,"(8.999999999999999e-08, 0.0, 0.0, 0.0, 8.999999999999999e-08, 0.0, 0.0, 0.0, 8.999999999999999e-08)"
2025/07/05/17:49:41.251741,10376,1751712581,261287008,base_link,0.0,0.0,0.0,0.0,"(-1.0, 0.0, 0.0, 0.0, 0.0, 0.0, 0.0, 0.0, 0.0)",-0.161,0.009000000000000034,0.27,"(1.2184696791468346e-07, 0.0, 0.0, 0.0, 1.2184696791468346e-07, 0.0, 0.0, 0.0, 1.2184696791468346e-07)",-1.32389775,0.27458620000000117,9.639936950000001,"(8.999999999999999e-08, 0.0, 0.0, 0.0, 8.999999999999999e-08, 0.0, 0.0, 0.0, 8.999999999999999e-08)"
2025/07/05/17:49:41.331197,10377,1751712581,341327008,base_link,0.0,0.0,0.0,0.0,"(-1.0, 0.0, 0.0, 0.0, 0.0, 0.0, 0.0, 0.0, 0.0)",-0.069,0.010000000000000035,0.289,"(1.2184696791468346e-07, 0.0, 0.0, 0.0, 1.2184696791468346e-07, 0.0, 0.0, 0.0, 1.2184696791468346e-07)",-1.3140911,0.1470997500000012,9.62032365,"(8.999999999999999e-08, 0.0, 0.0, 0.0, 8.999999999999999e-08, 0.0, 0.0, 0.0, 8.999999999999999e-08)"
2025/07/05/17:49:41.511991,10378,1751712581,521378008,base_link,0.0,0.0,0.0,0.0,"(-1.0, 0.0, 0.0, 0.0, 0.0, 0.0, 0.0, 0.0, 0.0)",0.095,-0.0009999999999999584,0.34,"(1.2184696791468346e-07, 0.0, 0.0, 0.0, 1.2184696791468346e-07, 0.0, 0.0, 0.0, 1.2184696791468346e-07)",-1.32389775,0.4805258500000012,9.67916355,"(8.999999999999999e-08, 0.0, 0.0, 0.0, 8.999999999999999e-08, 0.0, 0.0, 0.0, 8.999999999999999e-08)"
2025/07/05/17:49:41.592377,10379,1751712581,602464008,base_link,0.0,0.0,0.0,0.0,"(-1.0, 0.0, 0.0, 0.0, 0.0, 0.0, 0.0, 0.0, 0.0)",0.10300000000000001,0.0010000000000000406,0.331,"(1.2184696791468346e-07, 0.0, 0.0, 0.0, 1.2184696791468346e-07, 0.0, 0.0, 0.0, 1.2184696791468346e-07)",-1.3925443,0.6962721500000013,9.7085835,"(8.999999999999999e-08, 0.0, 0.0, 0.0, 8.999999999999999e-08, 0.0, 0.0, 0.0, 8.999999999999999e-08)"
2025/07/05/17:49:41.691376,10380,1751712581,701704008,base_link,0.0,0.0,0.0,0.0,"(-1.0, 0.0, 0.0, 0.0, 0.0, 0.0, 0.0, 0.0, 0.0)",0.09,0.007000000000000035,0.28200000000000003,"(1.2184696791468346e-07, 0.0, 0.0, 0.0, 1.2184696791468346e-07, 0.0, 0.0, 0.0, 1.2184696791468346e-07)",-1.26505785,1.3435110500000012,9.69877685,"(8.999999999999999e-08, 0.0, 0.0, 0.0, 8.999999999999999e-08, 0.0, 0.0, 0.0, 8.999999999999999e-08)"
2025/07/05/17:49:41.791753,10381,1751712581,801697008,base_link,0.0,0.0,0.0,0.0,"(-1.0, 0.0, 0.0, 0.0, 0.0, 0.0, 0.0, 0.0, 0.0)",0.25,0.023000000000000013,0.121,"(1.2184696791468346e-07, 0.0, 0.0, 0.0, 1.2184696791468346e-07, 0.0, 0.0, 0.0, 1.2184696791468346e-07)",-1.40235095,1.1081514500000011,9.639936950000001,"(8.999999999999999e-08, 0.0, 0.0, 0.0, 8.999999999999999e-08, 0.0, 0.0, 0.0, 8.999999999999999e-08)"
2025/07/05/17:49:41.891762,10382,1751712581,901652008,base_link,0.0,0.0,0.0,0.0,"(-1.0, 0.0, 0.0, 0.0, 0.0, 0.0, 0.0, 0.0, 0.0)",0.217,0.028,-0.012000000000000004,"(1.2184696791468346e-07, 0.0, 0.0, 0.0, 1.2184696791468346e-07, 0.0, 0.0, 0.0, 1.2184696791468346e-07)",-1.4709975,1.549450700000001,9.639936950000001,"(8.999999999999999e-08, 0.0, 0.0, 0.0, 8.999999999999999e-08, 0.0, 0.0, 0.0, 8.999999999999999e-08)"
2025/07/05/17:49:42.013020,10383,1751712582,22066008,base_link,0.0,0.0,0.0,0.0,"(-1.0, 0.0, 0.0, 0.0, 0.0, 0.0, 0.0, 0.0, 0.0)",0.01,0.013999999999999981,-0.161,"(1.2184696791468346e-07, 0.0, 0.0, 0.0, 1.2184696791468346e-07, 0.0, 0.0, 0.0, 1.2184696791468346e-07)",-1.4317709,1.2650578500000011,9.5124505,"(8.999999999999999e-08, 0.0, 0.0, 0.0, 8.999999999999999e-08, 0.0, 0.0, 0.0, 8.999999999999999e-08)"
2025/07/05/17:49:42.092304,10384,1751712582,102600008,base_link,0.0,0.0,0.0,0.0,"(-1.0, 0.0, 0.0, 0.0, 0.0, 0.0, 0.0, 0.0, 0.0)",-0.1,-0.00800000000000003,-0.23700000000000002,"(1.2184696791468346e-07, 0.0, 0.0, 0.0, 1.2184696791468346e-07, 0.0, 0.0, 0.0, 1.2184696791468346e-07)",-1.52003075,1.304284450000001,9.56148375,"(8.999999999999999e-08, 0.0, 0.0, 0.0, 8.999999999999999e-08, 0.0, 0.0, 0.0, 8.999999999999999e-08)"
2025/07/05/17:49:42.191726,10385,1751712582,201707008,base_link,0.0,0.0,0.0,0.0,"(-1.0, 0.0, 0.0, 0.0, 0.0, 0.0, 0.0, 0.0, 0.0)",-0.137,-0.032000000000000035,-0.301,"(1.2184696791468346e-07, 0.0, 0.0, 0.0, 1.2184696791468346e-07, 0.0, 0.0, 0.0, 1.2184696791468346e-07)",-1.4121576,0.6276256000000011,9.610517,"(8.999999999999999e-08, 0.0, 0.0, 0.0, 8.999999999999999e-08, 0.0, 0.0, 0.0, 8.999999999999999e-08)"
2025/07/05/17:49:42.252047,10386,1751712582,261316008,base_link,0.0,0.0,0.0,0.0,"(-1.0, 0.0, 0.0, 0.0, 0.0, 0.0, 0.0, 0.0, 0.0)",-0.139,-0.03900000000000004,-0.317,"(1.2184696791468346e-07, 0.0, 0.0, 0.0, 1.2184696791468346e-07, 0.0, 0.0, 0.0, 1.2184696791468346e-07)",-1.372931,0.39226600000000117,9.6693569,"(8.999999999999999e-08, 0.0, 0.0, 0.0, 8.999999999999999e-08, 0.0, 0.0, 0.0, 8.999999999999999e-08)"
2025/07/05/17:49:42.371460,10387,1751712582,380800008,base_link,0.0,0.0,0.0,0.0,"(-1.0, 0.0, 0.0, 0.0, 0.0, 0.0, 0.0, 0.0, 0.0)",-0.15,-0.03400000000000004,-0.276,"(1.2184696791468346e-07, 0.0, 0.0, 0.0, 1.2184696791468346e-07, 0.0, 0.0, 0.0, 1.2184696791468346e-07)",-1.1964113,-0.6276255999999988,9.69877685,"(8.999999999999999e-08, 0.0, 0.0, 0.0, 8.999999999999999e-08, 0.0, 0.0, 0.0, 8.999999999999999e-08)"
2025/07/05/17:49:42.552227,10388,1751712582,560942008,base_link,0.0,0.0,0.0,0.0,"(-1.0, 0.0, 0.0, 0.0, 0.0, 0.0, 0.0, 0.0, 0.0)",-0.392,-0.01699999999999999,0.077,"(1.2184696791468346e-07, 0.0, 0.0, 0.0, 1.2184696791468346e-07, 0.0, 0.0, 0.0, 1.2184696791468346e-07)",-1.372931,-0.45110589999999884,9.6497436,"(8.999999999999999e-08, 0.0, 0.0, 0.0, 8.999999999999999e-08, 0.0, 0.0, 0.0, 8.999999999999999e-08)"
2025/07/05/17:49:42.671097,10389,1751712582,680899008,base_link,0.0,0.0,0.0,0.0,"(-1.0, 0.0, 0.0, 0.0, 0.0, 0.0, 0.0, 0.0, 0.0)",-0.018000000000000002,-0.006999999999999975,0.20400000000000001,"(1.2184696791468346e-07, 0.0, 0.0, 0.0, 1.2184696791468346e-07, 0.0, 0.0, 0.0, 1.2184696791468346e-07)",-1.3533177,-0.49033249999999884,9.62032365,"(8.999999999999999e-08, 0.0, 0.0, 0.0, 8.999999999999999e-08, 0.0, 0.0, 0.0, 8.999999999999999e-08)"
2025/07/05/17:49:42.771392,10390,1751712582,781118008,base_link,0.0,0.0,0.0,0.0,"(-1.0, 0.0, 0.0, 0.0, 0.0, 0.0, 0.0, 0.0, 0.0)",0.272,-0.005999999999999965,0.28,"(1.2184696791468346e-07, 0.0, 0.0, 0.0, 1.2184696791468346e-07, 0.0, 0.0, 0.0, 1.2184696791468346e-07)",-1.30428445,-0.2255529499999988,9.6889702,"(8.999999999999999e-08, 0.0, 0.0, 0.0, 8.999999999999999e-08, 0.0, 0.0, 0.0, 8.999999999999999e-08)"
2025/07/05/17:49:42.850991,10391,1751712582,861214008,base_link,0.0,0.0,0.0,0.0,"(-1.0, 0.0, 0.0, 0.0, 0.0, 0.0, 0.0, 0.0, 0.0)",0.34400000000000003,-0.0029999999999999623,0.308,"(1.2184696791468346e-07, 0.0, 0.0, 0.0, 1.2184696791468346e-07, 0.0, 0.0, 0.0, 1.2184696791468346e-07)",-1.2356379,0.4805258500000012,9.62032365,"(8.999999999999999e-08, 0.0, 0.0, 0.0, 8.999999999999999e-08, 0.0, 0.0, 0.0, 8.999999999999999e-08)"
2025/07/05/17:49:42.992046,10392,1751712583,2411008,base_link,0.0,0.0,0.0,0.0,"(-1.0, 0.0, 0.0, 0.0, 0.0, 0.0, 0.0, 0.0, 0.0)",0.322,-0.00399999999999998,0.165,"(1.2184696791468346e-07, 0.0, 0.0, 0.0, 1.2184696791468346e-07, 0.0, 0.0, 0.0, 1.2184696791468346e-07)",-1.48080415,2.206496250000001,9.81645665,"(8.999999999999999e-08, 0.0, 0.0, 0.0, 8.999999999999999e-08, 0.0, 0.0, 0.0, 8.999999999999999e-08)"
2025/07/05/17:49:43.091949,10393,1751712583,101920008,base_link,0.0,0.0,0.0,0.0,"(-1.0, 0.0, 0.0, 0.0, 0.0, 0.0, 0.0, 0.0, 0.0)",0.35000000000000003,0.017999999999999995,-0.057,"(1.2184696791468346e-07, 0.0, 0.0, 0.0, 1.2184696791468346e-07, 0.0, 0.0, 0.0, 1.2184696791468346e-07)",-1.46119085,1.5298374000000012,9.62032365,"(8.999999999999999e-08, 0.0, 0.0, 0.0, 8.999999999999999e-08, 0.0, 0.0, 0.0, 8.999999999999999e-08)"
2025/07/05/17:49:43.191851,10394,1751712583,202032008,base_link,0.0,0.0,0.0,0.0,"(-1.0, 0.0, 0.0, 0.0, 0.0, 0.0, 0.0, 0.0, 0.0)",0.14200000000000002,0.012999999999999975,-0.219,"(1.2184696791468346e-07, 0.0, 0.0, 0.0, 1.2184696791468346e-07, 0.0, 0.0, 0.0, 1.2184696791468346e-07)",-1.40235095,0.9120184500000011,9.48303055,"(8.999999999999999e-08, 0.0, 0.0, 0.0, 8.999999999999999e-08, 0.0, 0.0, 0.0, 8.999999999999999e-08)"
2025/07/05/17:49:43.291818,10395,1751712583,301755008,base_link,0.0,0.0,0.0,0.0,"(-1.0, 0.0, 0.0, 0.0, 0.0, 0.0, 0.0, 0.0, 0.0)",-0.14400000000000002,-0.02500000000000004,-0.307,"(1.2184696791468346e-07, 0.0, 0.0, 0.0, 1.2184696791468346e-07, 0.0, 0.0, 0.0, 1.2184696791468346e-07)",-1.4317709,0.6668522000000011,9.52225715,"(8.999999999999999e-08, 0.0, 0.0, 0.0, 8.999999999999999e-08, 0.0, 0.0, 0.0, 8.999999999999999e-08)"
2025/07/05/17:49:43.391414,10396,1751712583,401959008,base_link,0.0,0.0,0.0,0.0,"(-1.0, 0.0, 0.0, 0.0, 0.0, 0.0, 0.0, 0.0, 0.0)",-0.297,-0.051000000000000045,-0.34600000000000003,"(1.2184696791468346e-07, 0.0, 0.0, 0.0, 1.2184696791468346e-07, 0.0, 0.0, 0.0, 1.2184696791468346e-07)",-1.34351105,0.1372931000000012,9.62032365,"(8.999999999999999e-08, 0.0, 0.0, 0.0, 8.999999999999999e-08, 0.0, 0.0, 0.0, 8.999999999999999e-08)"
2025/07/05/17:49:43.551140,10397,1751712583,561143008,base_link,0.0,0.0,0.0,0.0,"(-1.0, 0.0, 0.0, 0.0, 0.0, 0.0, 0.0, 0.0, 0.0)",-0.219,-0.046000000000000034,-0.255,"(1.2184696791468346e-07, 0.0, 0.0, 0.0, 1.2184696791468346e-07, 0.0, 0.0, 0.0, 1.2184696791468346e-07)",-1.22583125,-0.5883989999999988,9.7870367,"(8.999999999999999e-08, 0.0, 0.0, 0.0, 8.999999999999999e-08, 0.0, 0.0, 0.0, 8.999999999999999e-08)"
2025/07/05/17:49:43.672114,10398,1751712583,681357008,base_link,0.0,0.0,0.0,0.0,"(-1.0, 0.0, 0.0, 0.0, 0.0, 0.0, 0.0, 0.0, 0.0)",-0.114,-0.01400000000000001,-0.088,"(1.2184696791468346e-07, 0.0, 0.0, 0.0, 1.2184696791468346e-07, 0.0, 0.0, 0.0, 1.2184696791468346e-07)",-1.30428445,-1.9319100499999988,9.7478101,"(8.999999999999999e-08, 0.0, 0.0, 0.0, 8.999999999999999e-08, 0.0, 0.0, 0.0, 8.999999999999999e-08)"
2025/07/05/17:49:43.771145,10399,1751712583,781129008,base_link,0.0,0.0,0.0,0.0,"(-1.0, 0.0, 0.0, 0.0, 0.0, 0.0, 0.0, 0.0, 0.0)",-0.192,0.009000000000000017,0.134,"(1.2184696791468346e-07, 0.0, 0.0, 0.0, 1.2184696791468346e-07, 0.0, 0.0, 0.0, 1.2184696791468346e-07)",-1.36312435,-0.6570455499999989,9.6497436,"(8.999999999999999e-08, 0.0, 0.0, 0.0, 8.999999999999999e-08, 0.0, 0.0, 0.0, 8.999999999999999e-08)"
2025/07/05/17:49:43.871696,10400,1751712583,881013008,base_link,0.0,0.0,0.0,0.0,"(-1.0, 0.0, 0.0, 0.0, 0.0, 0.0, 0.0, 0.0, 0.0)",0.009000000000000001,0.01400000000000003,0.23600000000000002,"(1.2184696791468346e-07, 0.0, 0.0, 0.0, 1.2184696791468346e-07, 0.0, 0.0, 0.0, 1.2184696791468346e-07)",-1.3337044,-0.4609125499999988,9.58109705,"(8.999999999999999e-08, 0.0, 0.0, 0.0, 8.999999999999999e-08, 0.0, 0.0, 0.0, 8.999999999999999e-08)"
2025/07/05/17:49:43.971682,10401,1751712583,981747008,base_link,0.0,0.0,0.0,0.0,"(-1.0, 0.0, 0.0, 0.0, 0.0, 0.0, 0.0, 0.0, 0.0)",0.212,0.0030000000000000365,0.297,"(1.2184696791468346e-07, 0.0, 0.0, 0.0, 1.2184696791468346e-07, 0.0, 0.0, 0.0, 1.2184696791468346e-07)",-1.34351105,-0.08825984999999882,9.65955025,"(8.999999999999999e-08, 0.0, 0.0, 0.0, 8.999999999999999e-08, 0.0, 0.0, 0.0, 8.999999999999999e-08)"
2025/07/05/17:49:44.072033,10402,1751712584,81398008,base_link,0.0,0.0,0.0,0.0,"(-1.0, 0.0, 0.0, 0.0, 0.0, 0.0, 0.0, 0.0, 0.0)",0.23500000000000001,-0.00399999999999996,0.324,"(1.2184696791468346e-07, 0.0, 0.0, 0.0, 1.2184696791468346e-07, 0.0, 0.0, 0.0, 1.2184696791468346e-07)",-1.3140911,0.1961330000000012,9.639936950000001,"(8.999999999999999e-08, 0.0, 0.0, 0.0, 8.999999999999999e-08, 0.0, 0.0, 0.0, 8.999999999999999e-08)"
2025/07/05/17:49:44.171748,10403,1751712584,180803008,base_link,0.0,0.0,0.0,0.0,"(-1.0, 0.0, 0.0, 0.0, 0.0, 0.0, 0.0, 0.0, 0.0)",0.168,-0.007999999999999965,0.278,"(1.2184696791468346e-07, 0.0, 0.0, 0.0, 1.2184696791468346e-07, 0.0, 0.0, 0.0, 1.2184696791468346e-07)",-1.26505785,0.9022118000000012,9.73800345,"(8.999999999999999e-08, 0.0, 0.0, 0.0, 8.999999999999999e-08, 0.0, 0.0, 0.0, 8.999999999999999e-08)"
2025/07/05/17:49:44.251160,10404,1751712584,261273008,base_link,0.0,0.0,0.0,0.0,"(-1.0, 0.0, 0.0, 0.0, 0.0, 0.0, 0.0, 0.0, 0.0)",0.192,-0.0009999999999999796,0.167,"(1.2184696791468346e-07, 0.0, 0.0, 0.0, 1.2184696791468346e-07, 0.0, 0.0, 0.0, 1.2184696791468346e-07)",-1.4317709,1.931910050000001,9.79684335,"(8.999999999999999e-08, 0.0, 0.0, 0.0, 8.999999999999999e-08, 0.0, 0.0, 0.0, 8.999999999999999e-08)"
2025/07/05/17:49:44.331183,10405,1751712584,341145008,base_link,0.0,0.0,0.0,0.0,"(-1.0, 0.0, 0.0, 0.0, 0.0, 0.0, 0.0, 0.0, 0.0)",0.298,0.016,0.003999999999999998,"(1.2184696791468346e-07, 0.0, 0.0, 0.0, 1.2184696791468346e-07, 0.0, 0.0, 0.0, 1.2184696791468346e-07)",-1.38273765,0.7943386500000011,9.6497436,"(8.999999999999999e-08, 0.0, 0.0, 0.0, 8.999999999999999e-08, 0.0, 0.0, 0.0, 8.999999999999999e-08)"
2025/07/05/17:49:44.511612,10406,1751712584,521740008,base_link,0.0,0.0,0.0,0.0,"(-1.0, 0.0, 0.0, 0.0, 0.0, 0.0, 0.0, 0.0, 0.0)",0.021,-0.003000000000000027,-0.218,"(1.2184696791468346e-07, 0.0, 0.0, 0.0, 1.2184696791468346e-07, 0.0, 0.0, 0.0, 1.2184696791468346e-07)",-1.46119085,1.068924850000001,9.5712904,"(8.999999999999999e-08, 0.0, 0.0, 0.0, 8.999999999999999e-08, 0.0, 0.0, 0.0, 8.999999999999999e-08)"
2025/07/05/17:49:44.611935,10407,1751712584,621951008,base_link,0.0,0.0,0.0,0.0,"(-1.0, 0.0, 0.0, 0.0, 0.0, 0.0, 0.0, 0.0, 0.0)",-0.136,-0.023000000000000038,-0.3,"(1.2184696791468346e-07, 0.0, 0.0, 0.0, 1.2184696791468346e-07, 0.0, 0.0, 0.0, 1.2184696791468346e-07)",-1.42196425,0.5393657500000012,9.5909037,"(8.999999999999999e-08, 0.0, 0.0, 0.0, 8.999999999999999e-08, 0.0, 0.0, 0.0, 8.999999999999999e-08)"
2025/07/05/17:49:44.691371,10408,1751712584,701705008,base_link,0.0,0.0,0.0,0.0,"(-1.0, 0.0, 0.0, 0.0, 0.0, 0.0, 0.0, 0.0, 0.0)",-0.18,-0.034000000000000044,-0.327,"(1.2184696791468346e-07, 0.0, 0.0, 0.0, 1.2184696791468346e-07, 0.0, 0.0, 0.0, 1.2184696791468346e-07)",-1.32389775,0.04903325000000117,9.62032365,"(8.999999999999999e-08, 0.0, 0.0, 0.0, 8.999999999999999e-08, 0.0, 0.0, 0.0, 8.999999999999999e-08)"
2025/07/05/17:49:44.791503,10409,1751712584,801660008,base_link,0.0,0.0,0.0,0.0,"(-1.0, 0.0, 0.0, 0.0, 0.0, 0.0, 0.0, 0.0, 0.0)",-0.214,-0.04500000000000003,-0.272,"(1.2184696791468346e-07, 0.0, 0.0, 0.0, 1.2184696791468346e-07, 0.0, 0.0, 0.0, 1.2184696791468346e-07)",-1.18660465,-0.7551120499999987,9.69877685,"(8.999999999999999e-08, 0.0, 0.0, 0.0, 8.999999999999999e-08, 0.0, 0.0, 0.0, 8.999999999999999e-08)"
2025/07/05/17:49:44.852425,10410,1751712584,861360008,base_link,0.0,0.0,0.0,0.0,"(-1.0, 0.0, 0.0, 0.0, 0.0, 0.0, 0.0, 0.0, 0.0)",-0.257,-0.04600000000000002,-0.184,"(1.2184696791468346e-07, 0.0, 0.0, 0.0, 1.2184696791468346e-07, 0.0, 0.0, 0.0, 1.2184696791468346e-07)",-1.4121576,-1.6279038999999988,9.77723005,"(8.999999999999999e-08, 0.0, 0.0, 0.0, 8.999999999999999e-08, 0.0, 0.0, 0.0, 8.999999999999999e-08)"
2025/07/05/17:49:44.991716,10411,1751712585,1945008,base_link,0.0,0.0,0.0,0.0,"(-1.0, 0.0, 0.0, 0.0, 0.0, 0.0, 0.0, 0.0, 0.0)",-0.386,-0.010999999999999984,0.121,"(1.2184696791468346e-07, 0.0, 0.0, 0.0, 1.2184696791468346e-07, 0.0, 0.0, 0.0, 1.2184696791468346e-07)",-1.3533177,-0.6178189499999989,9.6889702,"(8.999999999999999e-08, 0.0, 0.0, 0.0, 8.999999999999999e-08, 0.0, 0.0, 0.0, 8.999999999999999e-08)"
2025/07/05/17:49:45.053121,10412,1751712585,61113008,base_link,0.0,0.0,0.0,0.0,"(-1.0, 0.0, 0.0, 0.0, 0.0, 0.0, 0.0, 0.0, 0.0)",-0.189,0.0030000000000000226,0.185,"(1.2184696791468346e-07, 0.0, 0.0, 0.0, 1.2184696791468346e-07, 0.0, 0.0, 0.0, 1.2184696791468346e-07)",-1.3337044,-0.6472388999999988,9.551677100000001,"(8.999999999999999e-08, 0.0, 0.0, 0.0, 8.999999999999999e-08, 0.0, 0.0, 0.0, 8.999999999999999e-08)"
2025/07/05/17:49:45.171228,10413,1751712585,181236008,base_link,0.0,0.0,0.0,0.0,"(-1.0, 0.0, 0.0, 0.0, 0.0, 0.0, 0.0, 0.0, 0.0)",0.254,0.007000000000000036,0.293,"(1.2184696791468346e-07, 0.0, 0.0, 0.0, 1.2184696791468346e-07, 0.0, 0.0, 0.0, 1.2184696791468346e-07)",-1.32389775,-0.33342609999999884,9.6497436,"(8.999999999999999e-08, 0.0, 0.0, 0.0, 8.999999999999999e-08, 0.0, 0.0, 0.0, 8.999999999999999e-08)"
2025/07/05/17:49:45.251110,10414,1751712585,261320008,base_link,0.0,0.0,0.0,0.0,"(-1.0, 0.0, 0.0, 0.0, 0.0, 0.0, 0.0, 0.0, 0.0)",0.38,0.0030000000000000417,0.339,"(1.2184696791468346e-07, 0.0, 0.0, 0.0, 1.2184696791468346e-07, 0.0, 0.0, 0.0, 1.2184696791468346e-07)",-1.3925443,1.1817527612332657e-15,9.6497436,"(8.999999999999999e-08, 0.0, 0.0, 0.0, 8.999999999999999e-08, 0.0, 0.0, 0.0, 8.999999999999999e-08)"
2025/07/05/17:49:45.371534,10415,1751712585,380917008,base_link,0.0,0.0,0.0,0.0,"(-1.0, 0.0, 0.0, 0.0, 0.0, 0.0, 0.0, 0.0, 0.0)",0.262,-0.0049999999999999585,0.337,"(1.2184696791468346e-07, 0.0, 0.0, 0.0, 1.2184696791468346e-07, 0.0, 0.0, 0.0, 1.2184696791468346e-07)",-1.22583125,0.9316317500000011,9.6497436,"(8.999999999999999e-08, 0.0, 0.0, 0.0, 8.999999999999999e-08, 0.0, 0.0, 0.0, 8.999999999999999e-08)"
2025/07/05/17:49:45.551939,10416,1751712585,560631008,base_link,0.0,0.0,0.0,0.0,"(-1.0, 0.0, 0.0, 0.0, 0.0, 0.0, 0.0, 0.0, 0.0)",0.267,0.012000000000000004,0.025,"(1.2184696791468346e-07, 0.0, 0.0, 0.0, 1.2184696791468346e-07, 0.0, 0.0, 0.0, 1.2184696791468346e-07)",-1.32389775,0.7354987500000011,9.5712904,"(8.999999999999999e-08, 0.0, 0.0, 0.0, 8.999999999999999e-08, 0.0, 0.0, 0.0, 8.999999999999999e-08)"
2025/07/05/17:49:45.651005,10417,1751712585,660679008,base_link,0.0,0.0,0.0,0.0,"(-1.0, 0.0, 0.0, 0.0, 0.0, 0.0, 0.0, 0.0, 0.0)",0.17200000000000001,0.018999999999999982,-0.14100000000000001,"(1.2184696791468346e-07, 0.0, 0.0, 0.0, 1.2184696791468346e-07, 0.0, 0.0, 0.0, 1.2184696791468346e-07)",-1.42196425,0.8041453000000012,9.5124505,"(8.999999999999999e-08, 0.0, 0.0, 0.0, 8.999999999999999e-08, 0.0, 0.0, 0.0, 8.999999999999999e-08)"
2025/07/05/17:49:45.751165,10418,1751712585,760660008,base_link,0.0,0.0,0.0,0.0,"(-1.0, 0.0, 0.0, 0.0, 0.0, 0.0, 0.0, 0.0, 0.0)",-0.018000000000000002,-0.0010000000000000317,-0.259,"(1.2184696791468346e-07, 0.0, 0.0, 0.0, 1.2184696791468346e-07, 0.0, 0.0, 0.0, 1.2184696791468346e-07)",-1.40235095,0.7354987500000011,9.551677100000001,"(8.999999999999999e-08, 0.0, 0.0, 0.0, 8.999999999999999e-08, 0.0, 0.0, 0.0, 8.999999999999999e-08)"
2025/07/05/17:49:45.834043,10419,1751712585,844252008,base_link,0.0,0.0,0.0,0.0,"(-1.0, 0.0, 0.0, 0.0, 0.0, 0.0, 0.0, 0.0, 0.0)",-0.162,-0.02600000000000004,-0.316,"(1.2184696791468346e-07, 0.0, 0.0, 0.0, 1.2184696791468346e-07, 0.0, 0.0, 0.0, 1.2184696791468346e-07)",-1.3925443,0.5785923500000012,9.5909037,"(8.999999999999999e-08, 0.0, 0.0, 0.0, 8.999999999999999e-08, 0.0, 0.0, 0.0, 8.999999999999999e-08)"
2025/07/05/17:49:45.950789,10420,1751712585,960633008,base_link,0.0,0.0,0.0,0.0,"(-1.0, 0.0, 0.0, 0.0, 0.0, 0.0, 0.0, 0.0, 0.0)",-0.20800000000000002,-0.049000000000000044,-0.342,"(1.2184696791468346e-07, 0.0, 0.0, 0.0, 1.2184696791468346e-07, 0.0, 0.0, 0.0, 1.2184696791468346e-07)",-1.2944778000000001,0.009806650000001187,9.6889702,"(8.999999999999999e-08, 0.0, 0.0, 0.0, 8.999999999999999e-08, 0.0, 0.0, 0.0, 8.999999999999999e-08)"
2025/07/05/17:49:46.033677,10421,1751712586,44038008,base_link,0.0,0.0,0.0,0.0,"(-1.0, 0.0, 0.0, 0.0, 0.0, 0.0, 0.0, 0.0, 0.0)",-0.155,-0.05300000000000004,-0.312,"(1.2184696791468346e-07, 0.0, 0.0, 0.0, 1.2184696791468346e-07, 0.0, 0.0, 0.0, 1.2184696791468346e-07)",-1.30428445,-0.31381279999999884,9.73800345,"(8.999999999999999e-08, 0.0, 0.0, 0.0, 8.999999999999999e-08, 0.0, 0.0, 0.0, 8.999999999999999e-08)"
2025/07/05/17:49:46.150770,10422,1751712586,160534008,base_link,0.0,0.0,0.0,0.0,"(-1.0, 0.0, 0.0, 0.0, 0.0, 0.0, 0.0, 0.0, 0.0)",-0.068,-0.03500000000000003,-0.20600000000000002,"(1.2184696791468346e-07, 0.0, 0.0, 0.0, 1.2184696791468346e-07, 0.0, 0.0, 0.0, 1.2184696791468346e-07)",-1.26505785,-0.5099457999999988,9.75761675,"(8.999999999999999e-08, 0.0, 0.0, 0.0, 8.999999999999999e-08, 0.0, 0.0, 0.0, 8.999999999999999e-08)"
2025/07/05/17:49:46.252469,10423,1751712586,260535008,base_link,0.0,0.0,0.0,0.0,"(-1.0, 0.0, 0.0, 0.0, 0.0, 0.0, 0.0, 0.0, 0.0)",-0.178,-0.009000000000000006,-0.042,"(1.2184696791468346e-07, 0.0, 0.0, 0.0, 1.2184696791468346e-07, 0.0, 0.0, 0.0, 1.2184696791468346e-07)",-1.3925443,-1.510224099999999,9.73800345,"(8.999999999999999e-08, 0.0, 0.0, 0.0, 8.999999999999999e-08, 0.0, 0.0, 0.0, 8.999999999999999e-08)"
2025/07/05/17:49:46.351603,10424,1751712586,360914008,base_link,0.0,0.0,0.0,0.0,"(-1.0, 0.0, 0.0, 0.0, 0.0, 0.0, 0.0, 0.0, 0.0)",-0.264,0.013000000000000018,0.139,"(1.2184696791468346e-07, 0.0, 0.0, 0.0, 1.2184696791468346e-07, 0.0, 0.0, 0.0, 1.2184696791468346e-07)",-1.3533177,-0.6962721499999989,9.6301303,"(8.999999999999999e-08, 0.0, 0.0, 0.0, 8.999999999999999e-08, 0.0, 0.0, 0.0, 8.999999999999999e-08)"
2025/07/05/17:49:46.513358,10425,1751712586,522210008,base_link,0.0,0.0,0.0,0.0,"(-1.0, 0.0, 0.0, 0.0, 0.0, 0.0, 0.0, 0.0, 0.0)",0.133,0.011000000000000034,0.278,"(1.2184696791468346e-07, 0.0, 0.0, 0.0, 1.2184696791468346e-07, 0.0, 0.0, 0.0, 1.2184696791468346e-07)",-1.3337044,-0.29419949999999884,9.639936950000001,"(8.999999999999999e-08, 0.0, 0.0, 0.0, 8.999999999999999e-08, 0.0, 0.0, 0.0, 8.999999999999999e-08)"
2025/07/05/17:49:46.630213,10426,1751712586,640535008,base_link,0.0,0.0,0.0,0.0,"(-1.0, 0.0, 0.0, 0.0, 0.0, 0.0, 0.0, 0.0, 0.0)",0.269,-0.007999999999999959,0.333,"(1.2184696791468346e-07, 0.0, 0.0, 0.0, 1.2184696791468346e-07, 0.0, 0.0, 0.0, 1.2184696791468346e-07)",-1.3533177,1.1781498564734082e-15,9.62032365,"(8.999999999999999e-08, 0.0, 0.0, 0.0, 8.999999999999999e-08, 0.0, 0.0, 0.0, 8.999999999999999e-08)"
2025/07/05/17:49:46.731098,10427,1751712586,740530008,base_link,0.0,0.0,0.0,0.0,"(-1.0, 0.0, 0.0, 0.0, 0.0, 0.0, 0.0, 0.0, 0.0)",0.183,-0.02399999999999996,0.343,"(1.2184696791468346e-07, 0.0, 0.0, 0.0, 1.2184696791468346e-07, 0.0, 0.0, 0.0, 1.2184696791468346e-07)",-1.28467115,0.39226600000000117,9.73800345,"(8.999999999999999e-08, 0.0, 0.0, 0.0, 8.999999999999999e-08, 0.0, 0.0, 0.0, 8.999999999999999e-08)"
2025/07/05/17:49:46.812456,10428,1751712586,821799008,base_link,0.0,0.0,0.0,0.0,"(-1.0, 0.0, 0.0, 0.0, 0.0, 0.0, 0.0, 0.0, 0.0)",0.099,-0.017999999999999964,0.299,"(1.2184696791468346e-07, 0.0, 0.0, 0.0, 1.2184696791468346e-07, 0.0, 0.0, 0.0, 1.2184696791468346e-07)",-1.2356379,0.9022118000000012,9.73800345,"(8.999999999999999e-08, 0.0, 0.0, 0.0, 8.999999999999999e-08, 0.0, 0.0, 0.0, 8.999999999999999e-08)"
2025/07/05/17:49:46.912309,10429,1751712586,921717008,base_link,0.0,0.0,0.0,0.0,"(-1.0, 0.0, 0.0, 0.0, 0.0, 0.0, 0.0, 0.0, 0.0)",0.126,0.004000000000000021,0.17200000000000001,"(1.2184696791468346e-07, 0.0, 0.0, 0.0, 1.2184696791468346e-07, 0.0, 0.0, 0.0, 1.2184696791468346e-07)",-1.4121576,1.382737650000001,9.7281968,"(8.999999999999999e-08, 0.0, 0.0, 0.0, 8.999999999999999e-08, 0.0, 0.0, 0.0, 8.999999999999999e-08)"
2025/07/05/17:49:46.992196,10430,1751712587,2263008,base_link,0.0,0.0,0.0,0.0,"(-1.0, 0.0, 0.0, 0.0, 0.0, 0.0, 0.0, 0.0, 0.0)",0.221,0.026000000000000006,0.037,"(1.2184696791468346e-07, 0.0, 0.0, 0.0, 1.2184696791468346e-07, 0.0, 0.0, 0.0, 1.2184696791468346e-07)",-1.38273765,1.1179581000000012,9.6301303,"(8.999999999999999e-08, 0.0, 0.0, 0.0, 8.999999999999999e-08, 0.0, 0.0, 0.0, 8.999999999999999e-08)"
2025/07/05/17:49:47.091680,10431,1751712587,101930008,base_link,0.0,0.0,0.0,0.0,"(-1.0, 0.0, 0.0, 0.0, 0.0, 0.0, 0.0, 0.0, 0.0)",0.163,0.025999999999999992,-0.082,"(1.2184696791468346e-07, 0.0, 0.0, 0.0, 1.2184696791468346e-07, 0.0, 0.0, 0.0, 1.2184696791468346e-07)",-1.3925443,1.078731500000001,9.60071035,"(8.999999999999999e-08, 0.0, 0.0, 0.0, 8.999999999999999e-08, 0.0, 0.0, 0.0, 8.999999999999999e-08)"
2025/07/05/17:49:47.191429,10432,1751712587,201723008,base_link,0.0,0.0,0.0,0.0,"(-1.0, 0.0, 0.0, 0.0, 0.0, 0.0, 0.0, 0.0, 0.0)",0.017,0.001999999999999977,-0.186,"(1.2184696791468346e-07, 0.0, 0.0, 0.0, 1.2184696791468346e-07, 0.0, 0.0, 0.0, 1.2184696791468346e-07)",-1.4121576,1.0296982500000011,9.5909037,"(8.999999999999999e-08, 0.0, 0.0, 0.0, 8.999999999999999e-08, 0.0, 0.0, 0.0, 8.999999999999999e-08)"
2025/07/05/17:49:47.272719,10433,1751712587,280949008,base_link,0.0,0.0,0.0,0.0,"(-1.0, 0.0, 0.0, 0.0, 0.0, 0.0, 0.0, 0.0, 0.0)",-0.08700000000000001,-0.02300000000000003,-0.248,"(1.2184696791468346e-07, 0.0, 0.0, 0.0, 1.2184696791468346e-07, 0.0, 0.0, 0.0, 1.2184696791468346e-07)",-1.36312435,0.4020726500000012,9.58109705,"(8.999999999999999e-08, 0.0, 0.0, 0.0, 8.999999999999999e-08, 0.0, 0.0, 0.0, 8.999999999999999e-08)"
2025/07/05/17:49:47.412539,10434,1751712587,422299008,base_link,0.0,0.0,0.0,0.0,"(-1.0, 0.0, 0.0, 0.0, 0.0, 0.0, 0.0, 0.0, 0.0)",-0.182,-0.05000000000000004,-0.275,"(1.2184696791468346e-07, 0.0, 0.0, 0.0, 1.2184696791468346e-07, 0.0, 0.0, 0.0, 1.2184696791468346e-07)",-1.2552512,0.2451662500000012,9.7478101,"(8.999999999999999e-08, 0.0, 0.0, 0.0, 8.999999999999999e-08, 0.0, 0.0, 0.0, 8.999999999999999e-08)"
2025/07/05/17:49:47.591819,10435,1751712587,601761008,base_link,0.0,0.0,0.0,0.0,"(-1.0, 0.0, 0.0, 0.0, 0.0, 0.0, 0.0, 0.0, 0.0)",0.034,-0.012000000000000033,-0.267,"(1.2184696791468346e-07, 0.0, 0.0, 0.0, 1.2184696791468346e-07, 0.0, 0.0, 0.0, 1.2184696791468346e-07)",-1.1179581,0.08825985000000118,9.6889702,"(8.999999999999999e-08, 0.0, 0.0, 0.0, 8.999999999999999e-08, 0.0, 0.0, 0.0, 8.999999999999999e-08)"
2025/07/05/17:49:47.670391,10436,1751712587,681019008,base_link,0.0,0.0,0.0,0.0,"(-1.0, 0.0, 0.0, 0.0, 0.0, 0.0, 0.0, 0.0, 0.0)",0.12,-0.010000000000000031,-0.26,"(1.2184696791468346e-07, 0.0, 0.0, 0.0, 1.2184696791468346e-07, 0.0, 0.0, 0.0, 1.2184696791468346e-07)",-1.08853815,0.09806650000000118,9.6889702,"(8.999999999999999e-08, 0.0, 0.0, 0.0, 8.999999999999999e-08, 0.0, 0.0, 0.0, 8.999999999999999e-08)"
2025/07/05/17:49:47.770340,10437,1751712587,780757008,base_link,0.0,0.0,0.0,0.0,"(-1.0, 0.0, 0.0, 0.0, 0.0, 0.0, 0.0, 0.0, 0.0)",0.133,-0.018000000000000033,-0.256,"(1.2184696791468346e-07, 0.0, 0.0, 0.0, 1.2184696791468346e-07, 0.0, 0.0, 0.0, 1.2184696791468346e-07)",-1.10815145,0.07845320000000118,9.69877685,"(8.999999999999999e-08, 0.0, 0.0, 0.0, 8.999999999999999e-08, 0.0, 0.0, 0.0, 8.999999999999999e-08)"
2025/07/05/17:49:47.851905,10438,1751712587,861284008,base_link,0.0,0.0,0.0,0.0,"(-1.0, 0.0, 0.0, 0.0, 0.0, 0.0, 0.0, 0.0, 0.0)",0.08600000000000001,-0.02200000000000003,-0.262,"(1.2184696791468346e-07, 0.0, 0.0, 0.0, 1.2184696791468346e-07, 0.0, 0.0, 0.0, 1.2184696791468346e-07)",-1.06892485,1.187757602499695e-15,9.69877685,"(8.999999999999999e-08, 0.0, 0.0, 0.0, 8.999999999999999e-08, 0.0, 0.0, 0.0, 8.999999999999999e-08)"
2025/07/05/17:49:47.991796,10439,1751712588,2062008,base_link,0.0,0.0,0.0,0.0,"(-1.0, 0.0, 0.0, 0.0, 0.0, 0.0, 0.0, 0.0, 0.0)",-0.006,-0.02400000000000003,-0.26,"(1.2184696791468346e-07, 0.0, 0.0, 0.0, 1.2184696791468346e-07, 0.0, 0.0, 0.0, 1.2184696791468346e-07)",-0.95124505,-0.08825984999999882,9.71839015,"(8.999999999999999e-08, 0.0, 0.0, 0.0, 8.999999999999999e-08, 0.0, 0.0, 0.0, 8.999999999999999e-08)"
2025/07/05/17:49:48.091922,10440,1751712588,101621008,base_link,0.0,0.0,0.0,0.0,"(-1.0, 0.0, 0.0, 0.0, 0.0, 0.0, 0.0, 0.0, 0.0)",-0.033,-0.02200000000000003,-0.262,"(1.2184696791468346e-07, 0.0, 0.0, 0.0, 1.2184696791468346e-07, 0.0, 0.0, 0.0, 1.2184696791468346e-07)",-1.01008495,-0.019613299999998814,9.6889702,"(8.999999999999999e-08, 0.0, 0.0, 0.0, 8.999999999999999e-08, 0.0, 0.0, 0.0, 8.999999999999999e-08)"
2025/07/05/17:49:48.191998,10441,1751712588,201906008,base_link,0.0,0.0,0.0,0.0,"(-1.0, 0.0, 0.0, 0.0, 0.0, 0.0, 0.0, 0.0, 0.0)",-0.027,-0.018000000000000033,-0.255,"(1.2184696791468346e-07, 0.0, 0.0, 0.0, 1.2184696791468346e-07, 0.0, 0.0, 0.0, 1.2184696791468346e-07)",-1.06892485,-0.2451662499999988,9.7478101,"(8.999999999999999e-08, 0.0, 0.0, 0.0, 8.999999999999999e-08, 0.0, 0.0, 0.0, 8.999999999999999e-08)"
2025/07/05/17:49:48.251979,10442,1751712588,261364008,base_link,0.0,0.0,0.0,0.0,"(-1.0, 0.0, 0.0, 0.0, 0.0, 0.0, 0.0, 0.0, 0.0)",-0.015,-0.018000000000000033,-0.244,"(1.2184696791468346e-07, 0.0, 0.0, 0.0, 1.2184696791468346e-07, 0.0, 0.0, 0.0, 1.2184696791468346e-07)",-1.08853815,-0.29419949999999884,9.73800345,"(8.999999999999999e-08, 0.0, 0.0, 0.0, 8.999999999999999e-08, 0.0, 0.0, 0.0, 8.999999999999999e-08)"
2025/07/05/17:49:48.371512,10443,1751712588,380936008,base_link,0.0,0.0,0.0,0.0,"(-1.0, 0.0, 0.0, 0.0, 0.0, 0.0, 0.0, 0.0, 0.0)",0.002,-0.017000000000000026,-0.209,"(1.2184696791468346e-07, 0.0, 0.0, 0.0, 1.2184696791468346e-07, 0.0, 0.0, 0.0, 1.2184696791468346e-07)",-1.02969825,-0.35303939999999884,9.7281968,"(8.999999999999999e-08, 0.0, 0.0, 0.0, 8.999999999999999e-08, 0.0, 0.0, 0.0, 8.999999999999999e-08)"
2025/07/05/17:49:48.552672,10444,1751712588,560639008,base_link,0.0,0.0,0.0,0.0,"(-1.0, 0.0, 0.0, 0.0, 0.0, 0.0, 0.0, 0.0, 0.0)",-0.14400000000000002,-6.613092715395707e-18,-0.054,"(1.2184696791468346e-07, 0.0, 0.0, 0.0, 1.2184696791468346e-07, 0.0, 0.0, 0.0, 1.2184696791468346e-07)",-0.99047165,-1.912296749999999,9.8262633,"(8.999999999999999e-08, 0.0, 0.0, 0.0, 8.999999999999999e-08, 0.0, 0.0, 0.0, 8.999999999999999e-08)"
2025/07/05/17:49:48.651922,10445,1751712588,660681008,base_link,0.0,0.0,0.0,0.0,"(-1.0, 0.0, 0.0, 0.0, 0.0, 0.0, 0.0, 0.0, 0.0)",-0.394,0.010000000000000021,0.163,"(1.2184696791468346e-07, 0.0, 0.0, 0.0, 1.2184696791468346e-07, 0.0, 0.0, 0.0, 1.2184696791468346e-07)",-1.20621795,-0.9806649999999989,9.639936950000001,"(8.999999999999999e-08, 0.0, 0.0, 0.0, 8.999999999999999e-08, 0.0, 0.0, 0.0, 8.999999999999999e-08)"
2025/07/05/17:49:48.730830,10446,1751712588,741314008,base_link,0.0,0.0,0.0,0.0,"(-1.0, 0.0, 0.0, 0.0, 0.0, 0.0, 0.0, 0.0, 0.0)",-0.28500000000000003,0.004000000000000034,0.277,"(1.2184696791468346e-07, 0.0, 0.0, 0.0, 1.2184696791468346e-07, 0.0, 0.0, 0.0, 1.2184696791468346e-07)",-1.14737805,-0.7551120499999989,9.5712904,"(8.999999999999999e-08, 0.0, 0.0, 0.0, 8.999999999999999e-08, 0.0, 0.0, 0.0, 8.999999999999999e-08)"
2025/07/05/17:49:48.833804,10447,1751712588,844226008,base_link,0.0,0.0,0.0,0.0,"(-1.0, 0.0, 0.0, 0.0, 0.0, 0.0, 0.0, 0.0, 0.0)",0.047,-0.019999999999999955,0.37,"(1.2184696791468346e-07, 0.0, 0.0, 0.0, 1.2184696791468346e-07, 0.0, 0.0, 0.0, 1.2184696791468346e-07)",-1.01008495,-0.6570455499999988,9.69877685,"(8.999999999999999e-08, 0.0, 0.0, 0.0, 8.999999999999999e-08, 0.0, 0.0, 0.0, 8.999999999999999e-08)"
2025/07/05/17:49:48.950768,10448,1751712588,960659008,base_link,0.0,0.0,0.0,0.0,"(-1.0, 0.0, 0.0, 0.0, 0.0, 0.0, 0.0, 0.0, 0.0)",0.296,-0.03599999999999995,0.443,"(1.2184696791468346e-07, 0.0, 0.0, 0.0, 1.2184696791468346e-07, 0.0, 0.0, 0.0, 1.2184696791468346e-07)",-1.1571847,-0.27458619999999884,9.65955025,"(8.999999999999999e-08, 0.0, 0.0, 0.0, 8.999999999999999e-08, 0.0, 0.0, 0.0, 8.999999999999999e-08)"
2025/07/05/17:49:49.033909,10449,1751712589,44192008,base_link,0.0,0.0,0.0,0.0,"(-1.0, 0.0, 0.0, 0.0, 0.0, 0.0, 0.0, 0.0, 0.0)",0.28800000000000003,-0.032999999999999946,0.464,"(1.2184696791468346e-07, 0.0, 0.0, 0.0, 1.2184696791468346e-07, 0.0, 0.0, 0.0, 1.2184696791468346e-07)",-1.0198916,0.1274864500000012,9.6889702,"(8.999999999999999e-08, 0.0, 0.0, 0.0, 8.999999999999999e-08, 0.0, 0.0, 0.0, 8.999999999999999e-08)"
2025/07/05/17:49:49.150560,10450,1751712589,160557008,base_link,0.0,0.0,0.0,0.0,"(-1.0, 0.0, 0.0, 0.0, 0.0, 0.0, 0.0, 0.0, 0.0)",0.135,-0.016999999999999946,0.452,"(1.2184696791468346e-07, 0.0, 0.0, 0.0, 1.2184696791468346e-07, 0.0, 0.0, 0.0, 1.2184696791468346e-07)",-1.0983448,0.49033250000000117,9.7085835,"(8.999999999999999e-08, 0.0, 0.0, 0.0, 8.999999999999999e-08, 0.0, 0.0, 0.0, 8.999999999999999e-08)"
2025/07/05/17:49:49.230664,10451,1751712589,241373008,base_link,0.0,0.0,0.0,0.0,"(-1.0, 0.0, 0.0, 0.0, 0.0, 0.0, 0.0, 0.0, 0.0)",0.023,-0.006999999999999947,0.431,"(1.2184696791468346e-07, 0.0, 0.0, 0.0, 1.2184696791468346e-07, 0.0, 0.0, 0.0, 1.2184696791468346e-07)",-1.1571847,0.8139519500000013,9.73800345,"(8.999999999999999e-08, 0.0, 0.0, 0.0, 8.999999999999999e-08, 0.0, 0.0, 0.0, 8.999999999999999e-08)"
2025/07/05/17:49:49.331280,10452,1751712589,341353008,base_link,0.0,0.0,0.0,0.0,"(-1.0, 0.0, 0.0, 0.0, 0.0, 0.0, 0.0, 0.0, 0.0)",-0.025,-0.0009999999999999519,0.393,"(1.2184696791468346e-07, 0.0, 0.0, 0.0, 1.2184696791468346e-07, 0.0, 0.0, 0.0, 1.2184696791468346e-07)",-1.01008495,1.2846711500000012,9.7674234,"(8.999999999999999e-08, 0.0, 0.0, 0.0, 8.999999999999999e-08, 0.0, 0.0, 0.0, 8.999999999999999e-08)"
2025/07/05/17:49:49.530770,10453,1751712589,540564008,base_link,0.0,0.0,0.0,0.0,"(-1.0, 0.0, 0.0, 0.0, 0.0, 0.0, 0.0, 0.0, 0.0)",0.5740000000000001,0.046,-0.015000000000000005,"(1.2184696791468346e-07, 0.0, 0.0, 0.0, 1.2184696791468346e-07, 0.0, 0.0, 0.0, 1.2184696791468346e-07)",-1.38273765,1.7553903500000012,9.5909037,"(8.999999999999999e-08, 0.0, 0.0, 0.0, 8.999999999999999e-08, 0.0, 0.0, 0.0, 8.999999999999999e-08)"
2025/07/05/17:49:49.633584,10454,1751712589,643559008,base_link,0.0,0.0,0.0,0.0,"(-1.0, 0.0, 0.0, 0.0, 0.0, 0.0, 0.0, 0.0, 0.0)",0.465,0.05399999999999997,-0.222,"(1.2184696791468346e-07, 0.0, 0.0, 0.0, 1.2184696791468346e-07, 0.0, 0.0, 0.0, 1.2184696791468346e-07)",-1.28467115,1.6573238500000012,9.610517,"(8.999999999999999e-08, 0.0, 0.0, 0.0, 8.999999999999999e-08, 0.0, 0.0, 0.0, 8.999999999999999e-08)"
2025/07/05/17:49:49.692437,10455,1751712589,702447008,base_link,0.0,0.0,0.0,0.0,"(-1.0, 0.0, 0.0, 0.0, 0.0, 0.0, 0.0, 0.0, 0.0)",0.24,0.03799999999999996,-0.322,"(1.2184696791468346e-07, 0.0, 0.0, 0.0, 1.2184696791468346e-07, 0.0, 0.0, 0.0, 1.2184696791468346e-07)",-1.2552512,1.304284450000001,9.2574776,"(8.999999999999999e-08, 0.0, 0.0, 0.0, 8.999999999999999e-08, 0.0, 0.0, 0.0, 8.999999999999999e-08)"
2025/07/05/17:49:49.812358,10456,1751712589,821938008,base_link,0.0,0.0,0.0,0.0,"(-1.0, 0.0, 0.0, 0.0, 0.0, 0.0, 0.0, 0.0, 0.0)",-0.268,-0.05900000000000006,-0.439,"(1.2184696791468346e-07, 0.0, 0.0, 0.0, 1.2184696791468346e-07, 0.0, 0.0, 0.0, 1.2184696791468346e-07)",-1.3337044,0.8727918500000011,9.38496405,"(8.999999999999999e-08, 0.0, 0.0, 0.0, 8.999999999999999e-08, 0.0, 0.0, 0.0, 8.999999999999999e-08)"
2025/07/05/17:49:49.911727,10457,1751712589,921932008,base_link,0.0,0.0,0.0,0.0,"(-1.0, 0.0, 0.0, 0.0, 0.0, 0.0, 0.0, 0.0, 0.0)",-0.402,-0.11400000000000006,-0.49,"(1.2184696791468346e-07, 0.0, 0.0, 0.0, 1.2184696791468346e-07, 0.0, 0.0, 0.0, 1.2184696791468346e-07)",-1.24544455,0.39226600000000117,9.67916355,"(8.999999999999999e-08, 0.0, 0.0, 0.0, 8.999999999999999e-08, 0.0, 0.0, 0.0, 8.999999999999999e-08)"
2025/07/05/17:49:49.991685,10458,1751712590,2243008,base_link,0.0,0.0,0.0,0.0,"(-1.0, 0.0, 0.0, 0.0, 0.0, 0.0, 0.0, 0.0, 0.0)",-0.328,-0.10900000000000006,-0.498,"(1.2184696791468346e-07, 0.0, 0.0, 0.0, 1.2184696791468346e-07, 0.0, 0.0, 0.0, 1.2184696791468346e-07)",-1.1964113,-0.1569063999999988,9.81645665,"(8.999999999999999e-08, 0.0, 0.0, 0.0, 8.999999999999999e-08, 0.0, 0.0, 0.0, 8.999999999999999e-08)"
2025/07/05/17:49:50.091202,10459,1751712590,101919008,base_link,0.0,0.0,0.0,0.0,"(-1.0, 0.0, 0.0, 0.0, 0.0, 0.0, 0.0, 0.0, 0.0)",-0.145,-0.06300000000000006,-0.456,"(1.2184696791468346e-07, 0.0, 0.0, 0.0, 1.2184696791468346e-07, 0.0, 0.0, 0.0, 1.2184696791468346e-07)",-1.2160246,-0.4216859499999988,9.73800345,"(8.999999999999999e-08, 0.0, 0.0, 0.0, 8.999999999999999e-08, 0.0, 0.0, 0.0, 8.999999999999999e-08)"
2025/07/05/17:49:50.191967,10460,1751712590,201747008,base_link,0.0,0.0,0.0,0.0,"(-1.0, 0.0, 0.0, 0.0, 0.0, 0.0, 0.0, 0.0, 0.0)",0.042,-0.01100000000000005,-0.41100000000000003,"(1.2184696791468346e-07, 0.0, 0.0, 0.0, 1.2184696791468346e-07, 0.0, 0.0, 0.0, 1.2184696791468346e-07)",-1.20621795,-0.5197524499999988,9.7478101,"(8.999999999999999e-08, 0.0, 0.0, 0.0, 8.999999999999999e-08, 0.0, 0.0, 0.0, 8.999999999999999e-08)"
2025/07/05/17:49:50.251531,10461,1751712590,261336008,base_link,0.0,0.0,0.0,0.0,"(-1.0, 0.0, 0.0, 0.0, 0.0, 0.0, 0.0, 0.0, 0.0)",0.08700000000000001,0.003999999999999954,-0.375,"(1.2184696791468346e-07, 0.0, 0.0, 0.0, 1.2184696791468346e-07, 0.0, 0.0, 0.0, 1.2184696791468346e-07)",-1.0198916,-0.7943386499999987,9.7674234,"(8.999999999999999e-08, 0.0, 0.0, 0.0, 8.999999999999999e-08, 0.0, 0.0, 0.0, 8.999999999999999e-08)"
2025/07/05/17:49:50.330318,10462,1751712590,341054008,base_link,0.0,0.0,0.0,0.0,"(-1.0, 0.0, 0.0, 0.0, 0.0, 0.0, 0.0, 0.0, 0.0)",0.033,0.004999999999999964,-0.298,"(1.2184696791468346e-07, 0.0, 0.0, 0.0, 1.2184696791468346e-07, 0.0, 0.0, 0.0, 1.2184696791468346e-07)",-1.0395049,-1.0689248499999988,9.6889702,"(8.999999999999999e-08, 0.0, 0.0, 0.0, 8.999999999999999e-08, 0.0, 0.0, 0.0, 8.999999999999999e-08)"
2025/07/05/17:49:50.511455,10463,1751712590,521717008,base_link,0.0,0.0,0.0,0.0,"(-1.0, 0.0, 0.0, 0.0, 0.0, 0.0, 0.0, 0.0, 0.0)",-0.614,-0.003999999999999983,0.14300000000000002,"(1.2184696791468346e-07, 0.0, 0.0, 0.0, 1.2184696791468346e-07, 0.0, 0.0, 0.0, 1.2184696791468346e-07)",-1.24544455,-1.0296982499999987,9.73800345,"(8.999999999999999e-08, 0.0, 0.0, 0.0, 8.999999999999999e-08, 0.0, 0.0, 0.0, 8.999999999999999e-08)"
2025/07/05/17:49:50.612083,10464,1751712590,622165008,base_link,0.0,0.0,0.0,0.0,"(-1.0, 0.0, 0.0, 0.0, 0.0, 0.0, 0.0, 0.0, 0.0)",-0.308,0.017000000000000036,0.28700000000000003,"(1.2184696791468346e-07, 0.0, 0.0, 0.0, 1.2184696791468346e-07, 0.0, 0.0, 0.0, 1.2184696791468346e-07)",-1.14737805,-1.0885381499999989,9.5124505,"(8.999999999999999e-08, 0.0, 0.0, 0.0, 8.999999999999999e-08, 0.0, 0.0, 0.0, 8.999999999999999e-08)"
2025/07/05/17:49:50.691395,10465,1751712590,701730008,base_link,0.0,0.0,0.0,0.0,"(-1.0, 0.0, 0.0, 0.0, 0.0, 0.0, 0.0, 0.0, 0.0)",0.105,0.011000000000000044,0.371,"(1.2184696791468346e-07, 0.0, 0.0, 0.0, 1.2184696791468346e-07, 0.0, 0.0, 0.0, 1.2184696791468346e-07)",-1.176798,-0.9120184499999989,9.414384,"(8.999999999999999e-08, 0.0, 0.0, 0.0, 8.999999999999999e-08, 0.0, 0.0, 0.0, 8.999999999999999e-08)"
2025/07/05/17:49:50.791804,10466,1751712590,801978008,base_link,0.0,0.0,0.0,0.0,"(-1.0, 0.0, 0.0, 0.0, 0.0, 0.0, 0.0, 0.0, 0.0)",0.442,-0.020999999999999946,0.455,"(1.2184696791468346e-07, 0.0, 0.0, 0.0, 1.2184696791468346e-07, 0.0, 0.0, 0.0, 1.2184696791468346e-07)",-1.1964113,-0.3628460499999988,9.58109705,"(8.999999999999999e-08, 0.0, 0.0, 0.0, 8.999999999999999e-08, 0.0, 0.0, 0.0, 8.999999999999999e-08)"
2025/07/05/17:49:50.891496,10467,1751712590,901755008,base_link,0.0,0.0,0.0,0.0,"(-1.0, 0.0, 0.0, 0.0, 0.0, 0.0, 0.0, 0.0, 0.0)",0.44,-0.043999999999999935,0.486,"(1.2184696791468346e-07, 0.0, 0.0, 0.0, 1.2184696791468346e-07, 0.0, 0.0, 0.0, 1.2184696791468346e-07)",-1.20621795,0.2255529500000012,9.69877685,"(8.999999999999999e-08, 0.0, 0.0, 0.0, 8.999999999999999e-08, 0.0, 0.0, 0.0, 8.999999999999999e-08)"
2025/07/05/17:49:50.992320,10468,1751712591,2580008,base_link,0.0,0.0,0.0,0.0,"(-1.0, 0.0, 0.0, 0.0, 0.0, 0.0, 0.0, 0.0, 0.0)",0.223,-0.037999999999999944,0.46,"(1.2184696791468346e-07, 0.0, 0.0, 0.0, 1.2184696791468346e-07, 0.0, 0.0, 0.0, 1.2184696791468346e-07)",-1.2944778000000001,0.5785923500000012,9.71839015,"(8.999999999999999e-08, 0.0, 0.0, 0.0, 8.999999999999999e-08, 0.0, 0.0, 0.0, 8.999999999999999e-08)"
2025/07/05/17:49:51.091355,10469,1751712591,101898008,base_link,0.0,0.0,0.0,0.0,"(-1.0, 0.0, 0.0, 0.0, 0.0, 0.0, 0.0, 0.0, 0.0)",-0.022,-0.010999999999999949,0.40700000000000003,"(1.2184696791468346e-07, 0.0, 0.0, 0.0, 1.2184696791468346e-07, 0.0, 0.0, 0.0, 1.2184696791468346e-07)",-1.176798,0.6472389000000013,9.80665,"(8.999999999999999e-08, 0.0, 0.0, 0.0, 8.999999999999999e-08, 0.0, 0.0, 0.0, 8.999999999999999e-08)"
2025/07/05/17:49:51.191610,10470,1751712591,201638008,base_link,0.0,0.0,0.0,0.0,"(-1.0, 0.0, 0.0, 0.0, 0.0, 0.0, 0.0, 0.0, 0.0)",-0.14100000000000001,0.011000000000000044,0.373,"(1.2184696791468346e-07, 0.0, 0.0, 0.0, 1.2184696791468346e-07, 0.0, 0.0, 0.0, 1.2184696791468346e-07)",-1.1964113,0.5491724000000012,9.67916355,"(8.999999999999999e-08, 0.0, 0.0, 0.0, 8.999999999999999e-08, 0.0, 0.0, 0.0, 8.999999999999999e-08)"
2025/07/05/17:49:51.250838,10471,1751712591,261298008,base_link,0.0,0.0,0.0,0.0,"(-1.0, 0.0, 0.0, 0.0, 0.0, 0.0, 0.0, 0.0, 0.0)",-0.145,0.012000000000000045,0.374,"(1.2184696791468346e-07, 0.0, 0.0, 0.0, 1.2184696791468346e-07, 0.0, 0.0, 0.0, 1.2184696791468346e-07)",-1.28467115,0.5295591000000012,9.7085835,"(8.999999999999999e-08, 0.0, 0.0, 0.0, 8.999999999999999e-08, 0.0, 0.0, 0.0, 8.999999999999999e-08)"
2025/07/05/17:49:51.351364,10472,1751712591,360655008,base_link,0.0,0.0,0.0,0.0,"(-1.0, 0.0, 0.0, 0.0, 0.0, 0.0, 0.0, 0.0, 0.0)",-0.076,0.004000000000000047,0.383,"(1.2184696791468346e-07, 0.0, 0.0, 0.0, 1.2184696791468346e-07, 0.0, 0.0, 0.0, 1.2184696791468346e-07)",-1.2552512,0.39226600000000117,9.65955025,"(8.999999999999999e-08, 0.0, 0.0, 0.0, 8.999999999999999e-08, 0.0, 0.0, 0.0, 8.999999999999999e-08)"
2025/07/05/17:49:51.530725,10473,1751712591,540681008,base_link,0.0,0.0,0.0,0.0,"(-1.0, 0.0, 0.0, 0.0, 0.0, 0.0, 0.0, 0.0, 0.0)",0.07,-0.00999999999999995,0.41500000000000004,"(1.2184696791468346e-07, 0.0, 0.0, 0.0, 1.2184696791468346e-07, 0.0, 0.0, 0.0, 1.2184696791468346e-07)",-1.22583125,0.6864655000000012,9.6693569,"(8.999999999999999e-08, 0.0, 0.0, 0.0, 8.999999999999999e-08, 0.0, 0.0, 0.0, 8.999999999999999e-08)"
2025/07/05/17:49:51.633979,10474,1751712591,644168008,base_link,0.0,0.0,0.0,0.0,"(-1.0, 0.0, 0.0, 0.0, 0.0, 0.0, 0.0, 0.0, 0.0)",0.084,-0.00499999999999995,0.41100000000000003,"(1.2184696791468346e-07, 0.0, 0.0, 0.0, 1.2184696791468346e-07, 0.0, 0.0, 0.0, 1.2184696791468346e-07)",-1.2944778000000001,0.7845320000000011,9.639936950000001,"(8.999999999999999e-08, 0.0, 0.0, 0.0, 8.999999999999999e-08, 0.0, 0.0, 0.0, 8.999999999999999e-08)"
2025/07/05/17:49:51.710926,10475,1751712591,722119008,base_link,0.0,0.0,0.0,0.0,"(-1.0, 0.0, 0.0, 0.0, 0.0, 0.0, 0.0, 0.0, 0.0)",0.058,0.0020000000000000486,0.397,"(1.2184696791468346e-07, 0.0, 0.0, 0.0, 1.2184696791468346e-07, 0.0, 0.0, 0.0, 1.2184696791468346e-07)",-1.20621795,0.8041453000000013,9.71839015,"(8.999999999999999e-08, 0.0, 0.0, 0.0, 8.999999999999999e-08, 0.0, 0.0, 0.0, 8.999999999999999e-08)"
2025/07/05/17:49:51.814021,10476,1751712591,824906008,base_link,0.0,0.0,0.0,0.0,"(-1.0, 0.0, 0.0, 0.0, 0.0, 0.0, 0.0, 0.0, 0.0)",-0.004,0.008000000000000047,0.383,"(1.2184696791468346e-07, 0.0, 0.0, 0.0, 1.2184696791468346e-07, 0.0, 0.0, 0.0, 1.2184696791468346e-07)",-1.1964113,0.9414384000000012,9.67916355,"(8.999999999999999e-08, 0.0, 0.0, 0.0, 8.999999999999999e-08, 0.0, 0.0, 0.0, 8.999999999999999e-08)"
2025/07/05/17:49:51.912749,10477,1751712591,921364008,base_link,0.0,0.0,0.0,0.0,"(-1.0, 0.0, 0.0, 0.0, 0.0, 0.0, 0.0, 0.0, 0.0)",-0.052000000000000005,0.010000000000000045,0.363,"(1.2184696791468346e-07, 0.0, 0.0, 0.0, 1.2184696791468346e-07, 0.0, 0.0, 0.0, 1.2184696791468346e-07)",-1.28467115,0.7551120500000013,9.6889702,"(8.999999999999999e-08, 0.0, 0.0, 0.0, 8.999999999999999e-08, 0.0, 0.0, 0.0, 8.999999999999999e-08)"
2025/07/05/17:49:51.991670,10478,1751712592,2519008,base_link,0.0,0.0,0.0,0.0,"(-1.0, 0.0, 0.0, 0.0, 0.0, 0.0, 0.0, 0.0, 0.0)",-0.07,0.015000000000000045,0.363,"(1.2184696791468346e-07, 0.0, 0.0, 0.0, 1.2184696791468346e-07, 0.0, 0.0, 0.0, 1.2184696791468346e-07)",-1.176798,0.8531785500000013,9.67916355,"(8.999999999999999e-08, 0.0, 0.0, 0.0, 8.999999999999999e-08, 0.0, 0.0, 0.0, 8.999999999999999e-08)"
2025/07/05/17:49:52.091950,10479,1751712592,101686008,base_link,0.0,0.0,0.0,0.0,"(-1.0, 0.0, 0.0, 0.0, 0.0, 0.0, 0.0, 0.0, 0.0)",-0.068,0.008000000000000044,0.359,"(1.2184696791468346e-07, 0.0, 0.0, 0.0, 1.2184696791468346e-07, 0.0, 0.0, 0.0, 1.2184696791468346e-07)",-1.2748645,0.7256921000000012,9.65955025,"(8.999999999999999e-08, 0.0, 0.0, 0.0, 8.999999999999999e-08, 0.0, 0.0, 0.0, 8.999999999999999e-08)"
2025/07/05/17:49:52.191322,10480,1751712592,201928008,base_link,0.0,0.0,0.0,0.0,"(-1.0, 0.0, 0.0, 0.0, 0.0, 0.0, 0.0, 0.0, 0.0)",-0.053,4.4332214129134187e-17,0.362,"(1.2184696791468346e-07, 0.0, 0.0, 0.0, 1.2184696791468346e-07, 0.0, 0.0, 0.0, 1.2184696791468346e-07)",-1.14737805,0.9120184500000013,9.69877685,"(8.999999999999999e-08, 0.0, 0.0, 0.0, 8.999999999999999e-08, 0.0, 0.0, 0.0, 8.999999999999999e-08)"
2025/07/05/17:49:52.272720,10481,1751712592,280952008,base_link,0.0,0.0,0.0,0.0,"(-1.0, 0.0, 0.0, 0.0, 0.0, 0.0, 0.0, 0.0, 0.0)",-0.031,0.002000000000000044,0.358,"(1.2184696791468346e-07, 0.0, 0.0, 0.0, 1.2184696791468346e-07, 0.0, 0.0, 0.0, 1.2184696791468346e-07)",-1.176798,0.6962721500000013,9.7281968,"(8.999999999999999e-08, 0.0, 0.0, 0.0, 8.999999999999999e-08, 0.0, 0.0, 0.0, 8.999999999999999e-08)"
2025/07/05/17:49:52.391400,10482,1751712592,401988008,base_link,0.0,0.0,0.0,0.0,"(-1.0, 0.0, 0.0, 0.0, 0.0, 0.0, 0.0, 0.0, 0.0)",-0.01,0.013000000000000045,0.357,"(1.2184696791468346e-07, 0.0, 0.0, 0.0, 1.2184696791468346e-07, 0.0, 0.0, 0.0, 1.2184696791468346e-07)",-1.1375714000000001,0.7256921000000012,9.65955025,"(8.999999999999999e-08, 0.0, 0.0, 0.0, 8.999999999999999e-08, 0.0, 0.0, 0.0, 8.999999999999999e-08)"
2025/07/05/17:49:52.570167,10483,1751712592,580705008,base_link,0.0,0.0,0.0,0.0,"(-1.0, 0.0, 0.0, 0.0, 0.0, 0.0, 0.0, 0.0, 0.0)",-0.012,0.008000000000000044,0.361,"(1.2184696791468346e-07, 0.0, 0.0, 0.0, 1.2184696791468346e-07, 0.0, 0.0, 0.0, 1.2184696791468346e-07)",-1.1964113,0.8924051500000013,9.6889702,"(8.999999999999999e-08, 0.0, 0.0, 0.0, 8.999999999999999e-08, 0.0, 0.0, 0.0, 8.999999999999999e-08)"
2025/07/05/17:49:52.671638,10484,1751712592,681081008,base_link,0.0,0.0,0.0,0.0,"(-1.0, 0.0, 0.0, 0.0, 0.0, 0.0, 0.0, 0.0, 0.0)",-0.022,0.009000000000000044,0.355,"(1.2184696791468346e-07, 0.0, 0.0, 0.0, 1.2184696791468346e-07, 0.0, 0.0, 0.0, 1.2184696791468346e-07)",-1.1179581,0.7060788000000011,9.6497436,"(8.999999999999999e-08, 0.0, 0.0, 0.0, 8.999999999999999e-08, 0.0, 0.0, 0.0, 8.999999999999999e-08)"
2025/07/05/17:49:52.771468,10485,1751712592,781185008,base_link,0.0,0.0,0.0,0.0,"(-1.0, 0.0, 0.0, 0.0, 0.0, 0.0, 0.0, 0.0, 0.0)",-0.03,0.0060000000000000435,0.354,"(1.2184696791468346e-07, 0.0, 0.0, 0.0, 1.2184696791468346e-07, 0.0, 0.0, 0.0, 1.2184696791468346e-07)",-1.1571847,0.7649187000000013,9.7085835,"(8.999999999999999e-08, 0.0, 0.0, 0.0, 8.999999999999999e-08, 0.0, 0.0, 0.0, 8.999999999999999e-08)"
2025/07/05/17:49:52.870133,10486,1751712592,880919008,base_link,0.0,0.0,0.0,0.0,"(-1.0, 0.0, 0.0, 0.0, 0.0, 0.0, 0.0, 0.0, 0.0)",-0.039,0.003000000000000043,0.35000000000000003,"(1.2184696791468346e-07, 0.0, 0.0, 0.0, 1.2184696791468346e-07, 0.0, 0.0, 0.0, 1.2184696791468346e-07)",-1.2160246,0.6472389000000013,9.71839015,"(8.999999999999999e-08, 0.0, 0.0, 0.0, 8.999999999999999e-08, 0.0, 0.0, 0.0, 8.999999999999999e-08)"
2025/07/05/17:49:52.991304,10487,1751712593,1936008,base_link,0.0,0.0,0.0,0.0,"(-1.0, 0.0, 0.0, 0.0, 0.0, 0.0, 0.0, 0.0, 0.0)",-0.041,0.001000000000000044,0.359,"(1.2184696791468346e-07, 0.0, 0.0, 0.0, 1.2184696791468346e-07, 0.0, 0.0, 0.0, 1.2184696791468346e-07)",-1.1179581,0.8924051500000013,9.67916355,"(8.999999999999999e-08, 0.0, 0.0, 0.0, 8.999999999999999e-08, 0.0, 0.0, 0.0, 8.999999999999999e-08)"
2025/07/05/17:49:53.091548,10488,1751712593,102020008,base_link,0.0,0.0,0.0,0.0,"(-1.0, 0.0, 0.0, 0.0, 0.0, 0.0, 0.0, 0.0, 0.0)",-0.024,0.003000000000000043,0.35000000000000003,"(1.2184696791468346e-07, 0.0, 0.0, 0.0, 1.2184696791468346e-07, 0.0, 0.0, 0.0, 1.2184696791468346e-07)",-1.14737805,0.7158854500000013,9.7281968,"(8.999999999999999e-08, 0.0, 0.0, 0.0, 8.999999999999999e-08, 0.0, 0.0, 0.0, 8.999999999999999e-08)"
2025/07/05/17:49:53.191958,10489,1751712593,202020008,base_link,0.0,0.0,0.0,0.0,"(-1.0, 0.0, 0.0, 0.0, 0.0, 0.0, 0.0, 0.0, 0.0)",-0.02,0.014000000000000044,0.34800000000000003,"(1.2184696791468346e-07, 0.0, 0.0, 0.0, 1.2184696791468346e-07, 0.0, 0.0, 0.0, 1.2184696791468346e-07)",-1.20621795,0.7845320000000011,9.610517,"(8.999999999999999e-08, 0.0, 0.0, 0.0, 8.999999999999999e-08, 0.0, 0.0, 0.0, 8.999999999999999e-08)"
2025/07/05/17:49:53.272779,10490,1751712593,280897008,base_link,0.0,0.0,0.0,0.0,"(-1.0, 0.0, 0.0, 0.0, 0.0, 0.0, 0.0, 0.0, 0.0)",-0.02,0.013000000000000043,0.34600000000000003,"(1.2184696791468346e-07, 0.0, 0.0, 0.0, 1.2184696791468346e-07, 0.0, 0.0, 0.0, 1.2184696791468346e-07)",-1.1375714000000001,0.8825985000000013,9.6889702,"(8.999999999999999e-08, 0.0, 0.0, 0.0, 8.999999999999999e-08, 0.0, 0.0, 0.0, 8.999999999999999e-08)"
2025/07/05/17:49:53.416589,10491,1751712593,424172008,base_link,0.0,0.0,0.0,0.0,"(-1.0, 0.0, 0.0, 0.0, 0.0, 0.0, 0.0, 0.0, 0.0)",-0.038,0.001000000000000042,0.343,"(1.2184696791468346e-07, 0.0, 0.0, 0.0, 1.2184696791468346e-07, 0.0, 0.0, 0.0, 1.2184696791468346e-07)",-1.16699135,0.7256921000000013,9.7085835,"(8.999999999999999e-08, 0.0, 0.0, 0.0, 8.999999999999999e-08, 0.0, 0.0, 0.0, 8.999999999999999e-08)"
2025/07/05/17:49:53.570576,10492,1751712593,581016008,base_link,0.0,0.0,0.0,0.0,"(-1.0, 0.0, 0.0, 0.0, 0.0, 0.0, 0.0, 0.0, 0.0)",-0.037,4.1882920530839486e-17,0.342,"(1.2184696791468346e-07, 0.0, 0.0, 0.0, 1.2184696791468346e-07, 0.0, 0.0, 0.0, 1.2184696791468346e-07)",-1.1179581,0.8139519500000011,9.65955025,"(8.999999999999999e-08, 0.0, 0.0, 0.0, 8.999999999999999e-08, 0.0, 0.0, 0.0, 8.999999999999999e-08)"
2025/07/05/17:49:53.671579,10493,1751712593,681235008,base_link,0.0,0.0,0.0,0.0,"(-1.0, 0.0, 0.0, 0.0, 0.0, 0.0, 0.0, 0.0, 0.0)",-0.034,0.009000000000000043,0.34500000000000003,"(1.2184696791468346e-07, 0.0, 0.0, 0.0, 1.2184696791468346e-07, 0.0, 0.0, 0.0, 1.2184696791468346e-07)",-1.1179581,0.7158854500000013,9.7085835,"(8.999999999999999e-08, 0.0, 0.0, 0.0, 8.999999999999999e-08, 0.0, 0.0, 0.0, 8.999999999999999e-08)"
2025/07/05/17:49:53.771415,10494,1751712593,780922008,base_link,0.0,0.0,0.0,0.0,"(-1.0, 0.0, 0.0, 0.0, 0.0, 0.0, 0.0, 0.0, 0.0)",-0.023,0.013000000000000045,0.353,"(1.2184696791468346e-07, 0.0, 0.0, 0.0, 1.2184696791468346e-07, 0.0, 0.0, 0.0, 1.2184696791468346e-07)",-1.176798,0.8629852000000011,9.6301303,"(8.999999999999999e-08, 0.0, 0.0, 0.0, 8.999999999999999e-08, 0.0, 0.0, 0.0, 8.999999999999999e-08)"
2025/07/05/17:49:53.871772,10495,1751712593,880943008,base_link,0.0,0.0,0.0,0.0,"(-1.0, 0.0, 0.0, 0.0, 0.0, 0.0, 0.0, 0.0, 0.0)",-0.015,0.006000000000000043,0.34500000000000003,"(1.2184696791468346e-07, 0.0, 0.0, 0.0, 1.2184696791468346e-07, 0.0, 0.0, 0.0, 1.2184696791468346e-07)",-1.1179581,0.7943386500000013,9.6889702,"(8.999999999999999e-08, 0.0, 0.0, 0.0, 8.999999999999999e-08, 0.0, 0.0, 0.0, 8.999999999999999e-08)"
2025/07/05/17:49:53.991795,10496,1751712594,2431008,base_link,0.0,0.0,0.0,0.0,"(-1.0, 0.0, 0.0, 0.0, 0.0, 0.0, 0.0, 0.0, 0.0)",-0.022,0.002000000000000043,0.34900000000000003,"(1.2184696791468346e-07, 0.0, 0.0, 0.0, 1.2184696791468346e-07, 0.0, 0.0, 0.0, 1.2184696791468346e-07)",-1.1571847,0.7256921000000013,9.67916355,"(8.999999999999999e-08, 0.0, 0.0, 0.0, 8.999999999999999e-08, 0.0, 0.0, 0.0, 8.999999999999999e-08)"
2025/07/05/17:49:54.052513,10497,1751712594,61347008,base_link,0.0,0.0,0.0,0.0,"(-1.0, 0.0, 0.0, 0.0, 0.0, 0.0, 0.0, 0.0, 0.0)",-0.024,0.003000000000000043,0.352,"(1.2184696791468346e-07, 0.0, 0.0, 0.0, 1.2184696791468346e-07, 0.0, 0.0, 0.0, 1.2184696791468346e-07)",-1.1179581,0.9806650000000012,9.67916355,"(8.999999999999999e-08, 0.0, 0.0, 0.0, 8.999999999999999e-08, 0.0, 0.0, 0.0, 8.999999999999999e-08)"
2025/07/05/17:49:54.171092,10498,1751712594,181113008,base_link,0.0,0.0,0.0,0.0,"(-1.0, 0.0, 0.0, 0.0, 0.0, 0.0, 0.0, 0.0, 0.0)",-0.032,0.007000000000000041,0.334,"(1.2184696791468346e-07, 0.0, 0.0, 0.0, 1.2184696791468346e-07, 0.0, 0.0, 0.0, 1.2184696791468346e-07)",-1.176798,0.7060788000000011,9.6693569,"(8.999999999999999e-08, 0.0, 0.0, 0.0, 8.999999999999999e-08, 0.0, 0.0, 0.0, 8.999999999999999e-08)"
2025/07/05/17:49:54.250573,10499,1751712594,261276008,base_link,0.0,0.0,0.0,0.0,"(-1.0, 0.0, 0.0, 0.0, 0.0, 0.0, 0.0, 0.0, 0.0)",-0.039,0.005000000000000042,0.341,"(1.2184696791468346e-07, 0.0, 0.0, 0.0, 1.2184696791468346e-07, 0.0, 0.0, 0.0, 1.2184696791468346e-07)",-1.16699135,0.8335652500000011,9.6693569,"(8.999999999999999e-08, 0.0, 0.0, 0.0, 8.999999999999999e-08, 0.0, 0.0, 0.0, 8.999999999999999e-08)"
2025/07/05/17:49:54.330112,10500,1751712594,341134008,base_link,0.0,0.0,0.0,0.0,"(-1.0, 0.0, 0.0, 0.0, 0.0, 0.0, 0.0, 0.0, 0.0)",-0.023,0.004000000000000043,0.34400000000000003,"(1.2184696791468346e-07, 0.0, 0.0, 0.0, 1.2184696791468346e-07, 0.0, 0.0, 0.0, 1.2184696791468346e-07)",-1.1375714000000001,0.6962721500000013,9.6889702,"(8.999999999999999e-08, 0.0, 0.0, 0.0, 8.999999999999999e-08, 0.0, 0.0, 0.0, 8.999999999999999e-08)"
2025/07/05/17:49:54.510664,10501,1751712594,521527008,base_link,0.0,0.0,0.0,0.0,"(-1.0, 0.0, 0.0, 0.0, 0.0, 0.0, 0.0, 0.0, 0.0)",-0.043000000000000003,0.006000000000000043,0.34700000000000003,"(1.2184696791468346e-07, 0.0, 0.0, 0.0, 1.2184696791468346e-07, 0.0, 0.0, 0.0, 1.2184696791468346e-07)",-1.1179581,0.6962721500000013,9.71839015,"(8.999999999999999e-08, 0.0, 0.0, 0.0, 8.999999999999999e-08, 0.0, 0.0, 0.0, 8.999999999999999e-08)"
2025/07/05/17:49:54.592246,10502,1751712594,602550008,base_link,0.0,0.0,0.0,0.0,"(-1.0, 0.0, 0.0, 0.0, 0.0, 0.0, 0.0, 0.0, 0.0)",-0.035,0.006000000000000043,0.34400000000000003,"(1.2184696791468346e-07, 0.0, 0.0, 0.0, 1.2184696791468346e-07, 0.0, 0.0, 0.0, 1.2184696791468346e-07)",-1.12776475,0.8825985000000013,9.67916355,"(8.999999999999999e-08, 0.0, 0.0, 0.0, 8.999999999999999e-08, 0.0, 0.0, 0.0, 8.999999999999999e-08)"
2025/07/05/17:49:54.691414,10503,1751712594,701728008,base_link,0.0,0.0,0.0,0.0,"(-1.0, 0.0, 0.0, 0.0, 0.0, 0.0, 0.0, 0.0, 0.0)",-0.015,0.006000000000000041,0.334,"(1.2184696791468346e-07, 0.0, 0.0, 0.0, 1.2184696791468346e-07, 0.0, 0.0, 0.0, 1.2184696791468346e-07)",-1.1571847,0.6080123000000012,9.6889702,"(8.999999999999999e-08, 0.0, 0.0, 0.0, 8.999999999999999e-08, 0.0, 0.0, 0.0, 8.999999999999999e-08)"
2025/07/05/17:49:54.791617,10504,1751712594,801918008,base_link,0.0,0.0,0.0,0.0,"(-1.0, 0.0, 0.0, 0.0, 0.0, 0.0, 0.0, 0.0, 0.0)",-0.015,4.249524393041316e-17,0.34700000000000003,"(1.2184696791468346e-07, 0.0, 0.0, 0.0, 1.2184696791468346e-07, 0.0, 0.0, 0.0, 1.2184696791468346e-07)",-1.1179581,0.7747253500000011,9.6693569,"(8.999999999999999e-08, 0.0, 0.0, 0.0, 8.999999999999999e-08, 0.0, 0.0, 0.0, 8.999999999999999e-08)"
2025/07/05/17:49:54.911479,10505,1751712594,921167008,base_link,0.0,0.0,0.0,0.0,"(-1.0, 0.0, 0.0, 0.0, 0.0, 0.0, 0.0, 0.0, 0.0)",-0.012,0.003000000000000042,0.342,"(1.2184696791468346e-07, 0.0, 0.0, 0.0, 1.2184696791468346e-07, 0.0, 0.0, 0.0, 1.2184696791468346e-07)",-1.0983448,0.7747253500000011,9.6497436,"(8.999999999999999e-08, 0.0, 0.0, 0.0, 8.999999999999999e-08, 0.0, 0.0, 0.0, 8.999999999999999e-08)"
2025/07/05/17:49:55.012416,10506,1751712595,22561008,base_link,0.0,0.0,0.0,0.0,"(-1.0, 0.0, 0.0, 0.0, 0.0, 0.0, 0.0, 0.0, 0.0)",-0.034,0.009000000000000043,0.342,"(1.2184696791468346e-07, 0.0, 0.0, 0.0, 1.2184696791468346e-07, 0.0, 0.0, 0.0, 1.2184696791468346e-07)",-1.1571847,0.7747253500000011,9.65955025,"(8.999999999999999e-08, 0.0, 0.0, 0.0, 8.999999999999999e-08, 0.0, 0.0, 0.0, 8.999999999999999e-08)"
2025/07/05/17:49:55.092051,10507,1751712595,102183008,base_link,0.0,0.0,0.0,0.0,"(-1.0, 0.0, 0.0, 0.0, 0.0, 0.0, 0.0, 0.0, 0.0)",-0.035,0.010000000000000042,0.339,"(1.2184696791468346e-07, 0.0, 0.0, 0.0, 1.2184696791468346e-07, 0.0, 0.0, 0.0, 1.2184696791468346e-07)",-1.1375714000000001,0.8041453000000013,9.69877685,"(8.999999999999999e-08, 0.0, 0.0, 0.0, 8.999999999999999e-08, 0.0, 0.0, 0.0, 8.999999999999999e-08)"
2025/07/05/17:49:55.191212,10508,1751712595,201739008,base_link,0.0,0.0,0.0,0.0,"(-1.0, 0.0, 0.0, 0.0, 0.0, 0.0, 0.0, 0.0, 0.0)",-0.03,0.007000000000000041,0.335,"(1.2184696791468346e-07, 0.0, 0.0, 0.0, 1.2184696791468346e-07, 0.0, 0.0, 0.0, 1.2184696791468346e-07)",-1.1179581,0.7060788000000012,9.69877685,"(8.999999999999999e-08, 0.0, 0.0, 0.0, 8.999999999999999e-08, 0.0, 0.0, 0.0, 8.999999999999999e-08)"
2025/07/05/17:49:55.291628,10509,1751712595,302192008,base_link,0.0,0.0,0.0,0.0,"(-1.0, 0.0, 0.0, 0.0, 0.0, 0.0, 0.0, 0.0, 0.0)",-0.031,0.004000000000000042,0.342,"(1.2184696791468346e-07, 0.0, 0.0, 0.0, 1.2184696791468346e-07, 0.0, 0.0, 0.0, 1.2184696791468346e-07)",-1.1375714000000001,0.8139519500000011,9.6693569,"(8.999999999999999e-08, 0.0, 0.0, 0.0, 8.999999999999999e-08, 0.0, 0.0, 0.0, 8.999999999999999e-08)"
2025/07/05/17:49:55.450771,10510,1751712595,460695008,base_link,0.0,0.0,0.0,0.0,"(-1.0, 0.0, 0.0, 0.0, 0.0, 0.0, 0.0, 0.0, 0.0)",-0.011,0.007000000000000041,0.336,"(1.2184696791468346e-07, 0.0, 0.0, 0.0, 1.2184696791468346e-07, 0.0, 0.0, 0.0, 1.2184696791468346e-07)",-1.1179581,0.7158854500000013,9.7085835,"(8.999999999999999e-08, 0.0, 0.0, 0.0, 8.999999999999999e-08, 0.0, 0.0, 0.0, 8.999999999999999e-08)"
2025/07/05/17:49:55.591504,10511,1751712595,602231008,base_link,0.0,0.0,0.0,0.0,"(-1.0, 0.0, 0.0, 0.0, 0.0, 0.0, 0.0, 0.0, 0.0)",-0.025,0.005000000000000042,0.34,"(1.2184696791468346e-07, 0.0, 0.0, 0.0, 1.2184696791468346e-07, 0.0, 0.0, 0.0, 1.2184696791468346e-07)",-1.10815145,0.8237586000000011,9.6693569,"(8.999999999999999e-08, 0.0, 0.0, 0.0, 8.999999999999999e-08, 0.0, 0.0, 0.0, 8.999999999999999e-08)"
2025/07/05/17:49:55.670106,10512,1751712595,681007008,base_link,0.0,0.0,0.0,0.0,"(-1.0, 0.0, 0.0, 0.0, 0.0, 0.0, 0.0, 0.0, 0.0)",-0.025,0.0030000000000000413,0.338,"(1.2184696791468346e-07, 0.0, 0.0, 0.0, 1.2184696791468346e-07, 0.0, 0.0, 0.0, 1.2184696791468346e-07)",-1.1179581,0.7551120500000013,9.7085835,"(8.999999999999999e-08, 0.0, 0.0, 0.0, 8.999999999999999e-08, 0.0, 0.0, 0.0, 8.999999999999999e-08)"
2025/07/05/17:49:55.771465,10513,1751712595,781325008,base_link,0.0,0.0,0.0,0.0,"(-1.0, 0.0, 0.0, 0.0, 0.0, 0.0, 0.0, 0.0, 0.0)",-0.016,0.010000000000000042,0.338,"(1.2184696791468346e-07, 0.0, 0.0, 0.0, 1.2184696791468346e-07, 0.0, 0.0, 0.0, 1.2184696791468346e-07)",-1.12776475,0.7845320000000011,9.6693569,"(8.999999999999999e-08, 0.0, 0.0, 0.0, 8.999999999999999e-08, 0.0, 0.0, 0.0, 8.999999999999999e-08)"
2025/07/05/17:49:55.870381,10514,1751712595,880687008,base_link,0.0,0.0,0.0,0.0,"(-1.0, 0.0, 0.0, 0.0, 0.0, 0.0, 0.0, 0.0, 0.0)",-0.016,0.011000000000000041,0.339,"(1.2184696791468346e-07, 0.0, 0.0, 0.0, 1.2184696791468346e-07, 0.0, 0.0, 0.0, 1.2184696791468346e-07)",-1.08853815,0.7649187000000013,9.6889702,"(8.999999999999999e-08, 0.0, 0.0, 0.0, 8.999999999999999e-08, 0.0, 0.0, 0.0, 8.999999999999999e-08)"
2025/07/05/17:49:55.971238,10515,1751712595,981083008,base_link,0.0,0.0,0.0,0.0,"(-1.0, 0.0, 0.0, 0.0, 0.0, 0.0, 0.0, 0.0, 0.0)",-0.041,0.005000000000000042,0.34,"(1.2184696791468346e-07, 0.0, 0.0, 0.0, 1.2184696791468346e-07, 0.0, 0.0, 0.0, 1.2184696791468346e-07)",-1.10815145,0.8139519500000013,9.6889702,"(8.999999999999999e-08, 0.0, 0.0, 0.0, 8.999999999999999e-08, 0.0, 0.0, 0.0, 8.999999999999999e-08)"
2025/07/05/17:49:56.071012,10516,1751712596,81409008,base_link,0.0,0.0,0.0,0.0,"(-1.0, 0.0, 0.0, 0.0, 0.0, 0.0, 0.0, 0.0, 0.0)",-0.052000000000000005,0.001000000000000041,0.335,"(1.2184696791468346e-07, 0.0, 0.0, 0.0, 1.2184696791468346e-07, 0.0, 0.0, 0.0, 1.2184696791468346e-07)",-1.10815145,0.7551120500000013,9.71839015,"(8.999999999999999e-08, 0.0, 0.0, 0.0, 8.999999999999999e-08, 0.0, 0.0, 0.0, 8.999999999999999e-08)"
2025/07/05/17:49:56.150555,10517,1751712596,161239008,base_link,0.0,0.0,0.0,0.0,"(-1.0, 0.0, 0.0, 0.0, 0.0, 0.0, 0.0, 0.0, 0.0)",-0.043000000000000003,0.0010000000000000408,0.332,"(1.2184696791468346e-07, 0.0, 0.0, 0.0, 1.2184696791468346e-07, 0.0, 0.0, 0.0, 1.2184696791468346e-07)",-1.0787315,0.7354987500000013,9.6889702,"(8.999999999999999e-08, 0.0, 0.0, 0.0, 8.999999999999999e-08, 0.0, 0.0, 0.0, 8.999999999999999e-08)"
2025/07/05/17:49:56.270916,10518,1751712596,281015008,base_link,0.0,0.0,0.0,0.0,"(-1.0, 0.0, 0.0, 0.0, 0.0, 0.0, 0.0, 0.0, 0.0)",-0.02,0.005000000000000042,0.337,"(1.2184696791468346e-07, 0.0, 0.0, 0.0, 1.2184696791468346e-07, 0.0, 0.0, 0.0, 1.2184696791468346e-07)",-1.1179581,0.7158854500000013,9.67916355,"(8.999999999999999e-08, 0.0, 0.0, 0.0, 8.999999999999999e-08, 0.0, 0.0, 0.0, 8.999999999999999e-08)"
2025/07/05/17:49:56.412141,10519,1751712596,421909008,base_link,0.0,0.0,0.0,0.0,"(-1.0, 0.0, 0.0, 0.0, 0.0, 0.0, 0.0, 0.0, 0.0)",-0.012,0.005000000000000042,0.343,"(1.2184696791468346e-07, 0.0, 0.0, 0.0, 1.2184696791468346e-07, 0.0, 0.0, 0.0, 1.2184696791468346e-07)",-1.12776475,0.7551120500000013,9.6889702,"(8.999999999999999e-08, 0.0, 0.0, 0.0, 8.999999999999999e-08, 0.0, 0.0, 0.0, 8.999999999999999e-08)"
2025/07/05/17:49:56.530191,10520,1751712596,540573008,base_link,0.0,0.0,0.0,0.0,"(-1.0, 0.0, 0.0, 0.0, 0.0, 0.0, 0.0, 0.0, 0.0)",-0.021,0.004000000000000042,0.343,"(1.2184696791468346e-07, 0.0, 0.0, 0.0, 1.2184696791468346e-07, 0.0, 0.0, 0.0, 1.2184696791468346e-07)",-1.1571847,0.6668522000000012,9.67916355,"(8.999999999999999e-08, 0.0, 0.0, 0.0, 8.999999999999999e-08, 0.0, 0.0, 0.0, 8.999999999999999e-08)"
2025/07/05/17:49:56.614048,10521,1751712596,624924008,base_link,0.0,0.0,0.0,0.0,"(-1.0, 0.0, 0.0, 0.0, 0.0, 0.0, 0.0, 0.0, 0.0)",-0.036000000000000004,0.0050000000000000435,0.35100000000000003,"(1.2184696791468346e-07, 0.0, 0.0, 0.0, 1.2184696791468346e-07, 0.0, 0.0, 0.0, 1.2184696791468346e-07)",-1.1375714000000001,0.7649187000000012,9.6693569,"(8.999999999999999e-08, 0.0, 0.0, 0.0, 8.999999999999999e-08, 0.0, 0.0, 0.0, 8.999999999999999e-08)"
2025/07/05/17:49:56.692019,10522,1751712596,702603008,base_link,0.0,0.0,0.0,0.0,"(-1.0, 0.0, 0.0, 0.0, 0.0, 0.0, 0.0, 0.0, 0.0)",-0.039,0.0050000000000000435,0.354,"(1.2184696791468346e-07, 0.0, 0.0, 0.0, 1.2184696791468346e-07, 0.0, 0.0, 0.0, 1.2184696791468346e-07)",-1.1375714000000001,0.7354987500000013,9.6889702,"(8.999999999999999e-08, 0.0, 0.0, 0.0, 8.999999999999999e-08, 0.0, 0.0, 0.0, 8.999999999999999e-08)"
2025/07/05/17:49:56.792233,10523,1751712596,802690008,base_link,0.0,0.0,0.0,0.0,"(-1.0, 0.0, 0.0, 0.0, 0.0, 0.0, 0.0, 0.0, 0.0)",-0.023,0.003000000000000043,0.35100000000000003,"(1.2184696791468346e-07, 0.0, 0.0, 0.0, 1.2184696791468346e-07, 0.0, 0.0, 0.0, 1.2184696791468346e-07)",-1.1179581,0.8041453000000013,9.6889702,"(8.999999999999999e-08, 0.0, 0.0, 0.0, 8.999999999999999e-08, 0.0, 0.0, 0.0, 8.999999999999999e-08)"
2025/07/05/17:49:56.891364,10524,1751712596,901964008,base_link,0.0,0.0,0.0,0.0,"(-1.0, 0.0, 0.0, 0.0, 0.0, 0.0, 0.0, 0.0, 0.0)",-0.02,0.0020000000000000443,0.36,"(1.2184696791468346e-07, 0.0, 0.0, 0.0, 1.2184696791468346e-07, 0.0, 0.0, 0.0, 1.2184696791468346e-07)",-1.10815145,0.8629852000000012,9.6889702,"(8.999999999999999e-08, 0.0, 0.0, 0.0, 8.999999999999999e-08, 0.0, 0.0, 0.0, 8.999999999999999e-08)"
2025/07/05/17:49:56.992403,10525,1751712597,2666008,base_link,0.0,0.0,0.0,0.0,"(-1.0, 0.0, 0.0, 0.0, 0.0, 0.0, 0.0, 0.0, 0.0)",-0.022,0.008000000000000044,0.357,"(1.2184696791468346e-07, 0.0, 0.0, 0.0, 1.2184696791468346e-07, 0.0, 0.0, 0.0, 1.2184696791468346e-07)",-1.10815145,0.7649187000000013,9.67916355,"(8.999999999999999e-08, 0.0, 0.0, 0.0, 8.999999999999999e-08, 0.0, 0.0, 0.0, 8.999999999999999e-08)"
2025/07/05/17:49:57.091098,10526,1751712597,101922008,base_link,0.0,0.0,0.0,0.0,"(-1.0, 0.0, 0.0, 0.0, 0.0, 0.0, 0.0, 0.0, 0.0)",-0.018000000000000002,0.020000000000000042,0.34900000000000003,"(1.2184696791468346e-07, 0.0, 0.0, 0.0, 1.2184696791468346e-07, 0.0, 0.0, 0.0, 1.2184696791468346e-07)",-1.14737805,0.8041453000000013,9.6889702,"(8.999999999999999e-08, 0.0, 0.0, 0.0, 8.999999999999999e-08, 0.0, 0.0, 0.0, 8.999999999999999e-08)"
2025/07/05/17:49:57.191086,10527,1751712597,201911008,base_link,0.0,0.0,0.0,0.0,"(-1.0, 0.0, 0.0, 0.0, 0.0, 0.0, 0.0, 0.0, 0.0)",-0.014,0.01900000000000004,0.342,"(1.2184696791468346e-07, 0.0, 0.0, 0.0, 1.2184696791468346e-07, 0.0, 0.0, 0.0, 1.2184696791468346e-07)",-1.10815145,0.7551120500000013,9.73800345,"(8.999999999999999e-08, 0.0, 0.0, 0.0, 8.999999999999999e-08, 0.0, 0.0, 0.0, 8.999999999999999e-08)"
2025/07/05/17:49:57.291225,10528,1751712597,301986008,base_link,0.0,0.0,0.0,0.0,"(-1.0, 0.0, 0.0, 0.0, 0.0, 0.0, 0.0, 0.0, 0.0)",-0.021,0.012000000000000042,0.342,"(1.2184696791468346e-07, 0.0, 0.0, 0.0, 1.2184696791468346e-07, 0.0, 0.0, 0.0, 1.2184696791468346e-07)",-1.1964113,0.8924051500000013,9.71839015,"(8.999999999999999e-08, 0.0, 0.0, 0.0, 8.999999999999999e-08, 0.0, 0.0, 0.0, 8.999999999999999e-08)"
2025/07/05/17:49:57.372659,10529,1751712597,381521008,base_link,0.0,0.0,0.0,0.0,"(-1.0, 0.0, 0.0, 0.0, 0.0, 0.0, 0.0, 0.0, 0.0)",-0.033,0.005000000000000041,0.334,"(1.2184696791468346e-07, 0.0, 0.0, 0.0, 1.2184696791468346e-07, 0.0, 0.0, 0.0, 1.2184696791468346e-07)",-1.20621795,0.7158854500000013,9.7085835,"(8.999999999999999e-08, 0.0, 0.0, 0.0, 8.999999999999999e-08, 0.0, 0.0, 0.0, 8.999999999999999e-08)"
2025/07/05/17:49:57.572523,10530,1751712597,581052008,base_link,0.0,0.0,0.0,0.0,"(-1.0, 0.0, 0.0, 0.0, 0.0, 0.0, 0.0, 0.0, 0.0)",-0.04,0.003000000000000042,0.343,"(1.2184696791468346e-07, 0.0, 0.0, 0.0, 1.2184696791468346e-07, 0.0, 0.0, 0.0, 1.2184696791468346e-07)",-1.14737805,0.8139519500000011,9.60071035,"(8.999999999999999e-08, 0.0, 0.0, 0.0, 8.999999999999999e-08, 0.0, 0.0, 0.0, 8.999999999999999e-08)"
2025/07/05/17:49:57.671255,10531,1751712597,681020008,base_link,0.0,0.0,0.0,0.0,"(-1.0, 0.0, 0.0, 0.0, 0.0, 0.0, 0.0, 0.0, 0.0)",-0.008,0.009000000000000043,0.34500000000000003,"(1.2184696791468346e-07, 0.0, 0.0, 0.0, 1.2184696791468346e-07, 0.0, 0.0, 0.0, 1.2184696791468346e-07)",-1.16699135,0.6668522000000011,9.65955025,"(8.999999999999999e-08, 0.0, 0.0, 0.0, 8.999999999999999e-08, 0.0, 0.0, 0.0, 8.999999999999999e-08)"
2025/07/05/17:49:57.770276,10532,1751712597,781160008,base_link,0.0,0.0,0.0,0.0,"(-1.0, 0.0, 0.0, 0.0, 0.0, 0.0, 0.0, 0.0, 0.0)",0.005,0.012000000000000044,0.353,"(1.2184696791468346e-07, 0.0, 0.0, 0.0, 1.2184696791468346e-07, 0.0, 0.0, 0.0, 1.2184696791468346e-07)",-1.1375714000000001,0.8825985000000012,9.6497436,"(8.999999999999999e-08, 0.0, 0.0, 0.0, 8.999999999999999e-08, 0.0, 0.0, 0.0, 8.999999999999999e-08)"
2025/07/05/17:49:57.850264,10533,1751712597,861295008,base_link,0.0,0.0,0.0,0.0,"(-1.0, 0.0, 0.0, 0.0, 0.0, 0.0, 0.0, 0.0, 0.0)",0.031,0.005000000000000039,0.316,"(1.2184696791468346e-07, 0.0, 0.0, 0.0, 1.2184696791468346e-07, 0.0, 0.0, 0.0, 1.2184696791468346e-07)",-1.18660465,1.4513842000000012,9.69877685,"(8.999999999999999e-08, 0.0, 0.0, 0.0, 8.999999999999999e-08, 0.0, 0.0, 0.0, 8.999999999999999e-08)"
2025/07/05/17:49:57.970244,10534,1751712597,980721008,base_link,0.0,0.0,0.0,0.0,"(-1.0, 0.0, 0.0, 0.0, 0.0, 0.0, 0.0, 0.0, 0.0)",0.442,0.031000000000000003,0.028999999999999998,"(1.2184696791468346e-07, 0.0, 0.0, 0.0, 1.2184696791468346e-07, 0.0, 0.0, 0.0, 1.2184696791468346e-07)",-1.3140911,1.1081514500000014,9.7281968,"(8.999999999999999e-08, 0.0, 0.0, 0.0, 8.999999999999999e-08, 0.0, 0.0, 0.0, 8.999999999999999e-08)"
2025/07/05/17:49:58.050292,10535,1751712598,61311008,base_link,0.0,0.0,0.0,0.0,"(-1.0, 0.0, 0.0, 0.0, 0.0, 0.0, 0.0, 0.0, 0.0)",0.503,0.044999999999999984,-0.14,"(1.2184696791468346e-07, 0.0, 0.0, 0.0, 1.2184696791468346e-07, 0.0, 0.0, 0.0, 1.2184696791468346e-07)",-1.34351105,1.8338435500000012,9.7478101,"(8.999999999999999e-08, 0.0, 0.0, 0.0, 8.999999999999999e-08, 0.0, 0.0, 0.0, 8.999999999999999e-08)"
2025/07/05/17:49:58.130227,10536,1751712598,141134008,base_link,0.0,0.0,0.0,0.0,"(-1.0, 0.0, 0.0, 0.0, 0.0, 0.0, 0.0, 0.0, 0.0)",0.34900000000000003,0.04899999999999997,-0.281,"(1.2184696791468346e-07, 0.0, 0.0, 0.0, 1.2184696791468346e-07, 0.0, 0.0, 0.0, 1.2184696791468346e-07)",-1.2748645,1.549450700000001,9.463417250000001,"(8.999999999999999e-08, 0.0, 0.0, 0.0, 8.999999999999999e-08, 0.0, 0.0, 0.0, 8.999999999999999e-08)"
2025/07/05/17:49:58.233345,10537,1751712598,244256008,base_link,0.0,0.0,0.0,0.0,"(-1.0, 0.0, 0.0, 0.0, 0.0, 0.0, 0.0, 0.0, 0.0)",-0.067,-0.003000000000000048,-0.393,"(1.2184696791468346e-07, 0.0, 0.0, 0.0, 1.2184696791468346e-07, 0.0, 0.0, 0.0, 1.2184696791468346e-07)",-1.3140911,1.1375714000000012,9.2967042,"(8.999999999999999e-08, 0.0, 0.0, 0.0, 8.999999999999999e-08, 0.0, 0.0, 0.0, 8.999999999999999e-08)"
2025/07/05/17:49:58.330193,10538,1751712598,340601008,base_link,0.0,0.0,0.0,0.0,"(-1.0, 0.0, 0.0, 0.0, 0.0, 0.0, 0.0, 0.0, 0.0)",-0.391,-0.07300000000000005,-0.441,"(1.2184696791468346e-07, 0.0, 0.0, 0.0, 1.2184696791468346e-07, 0.0, 0.0, 0.0, 1.2184696791468346e-07)",-1.20621795,0.3824593500000012,9.6301303,"(8.999999999999999e-08, 0.0, 0.0, 0.0, 8.999999999999999e-08, 0.0, 0.0, 0.0, 8.999999999999999e-08)"
2025/07/05/17:49:58.492048,10539,1751712598,502509008,base_link,0.0,0.0,0.0,0.0,"(-1.0, 0.0, 0.0, 0.0, 0.0, 0.0, 0.0, 0.0, 0.0)",-0.643,-0.08500000000000003,-0.271,"(1.2184696791468346e-07, 0.0, 0.0, 0.0, 1.2184696791468346e-07, 0.0, 0.0, 0.0, 1.2184696791468346e-07)",-1.1964113,-1.667130499999999,9.83606995,"(8.999999999999999e-08, 0.0, 0.0, 0.0, 8.999999999999999e-08, 0.0, 0.0, 0.0, 8.999999999999999e-08)"
2025/07/05/17:49:58.591416,10540,1751712598,601916008,base_link,0.0,0.0,0.0,0.0,"(-1.0, 0.0, 0.0, 0.0, 0.0, 0.0, 0.0, 0.0, 0.0)",-0.6930000000000001,-0.043000000000000003,0.020000000000000007,"(1.2184696791468346e-07, 0.0, 0.0, 0.0, 1.2184696791468346e-07, 0.0, 0.0, 0.0, 1.2184696791468346e-07)",-1.24544455,-1.2258312499999988,9.83606995,"(8.999999999999999e-08, 0.0, 0.0, 0.0, 8.999999999999999e-08, 0.0, 0.0, 0.0, 8.999999999999999e-08)"
2025/07/05/17:49:58.670083,10541,1751712598,681047008,base_link,0.0,0.0,0.0,0.0,"(-1.0, 0.0, 0.0, 0.0, 0.0, 0.0, 0.0, 0.0, 0.0)",-0.353,-0.003999999999999977,0.19,"(1.2184696791468346e-07, 0.0, 0.0, 0.0, 1.2184696791468346e-07, 0.0, 0.0, 0.0, 1.2184696791468346e-07)",-1.2160246,-1.0591181999999988,9.463417250000001,"(8.999999999999999e-08, 0.0, 0.0, 0.0, 8.999999999999999e-08, 0.0, 0.0, 0.0, 8.999999999999999e-08)"
2025/07/05/17:49:58.771734,10542,1751712598,781299008,base_link,0.0,0.0,0.0,0.0,"(-1.0, 0.0, 0.0, 0.0, 0.0, 0.0, 0.0, 0.0, 0.0)",0.27,0.00700000000000004,0.328,"(1.2184696791468346e-07, 0.0, 0.0, 0.0, 1.2184696791468346e-07, 0.0, 0.0, 0.0, 1.2184696791468346e-07)",-1.176798,-0.9610516999999988,9.4928372,"(8.999999999999999e-08, 0.0, 0.0, 0.0, 8.999999999999999e-08, 0.0, 0.0, 0.0, 8.999999999999999e-08)"
2025/07/05/17:49:58.850059,10543,1751712598,861030008,base_link,0.0,0.0,0.0,0.0,"(-1.0, 0.0, 0.0, 0.0, 0.0, 0.0, 0.0, 0.0, 0.0)",0.54,-0.0009999999999999493,0.41500000000000004,"(1.2184696791468346e-07, 0.0, 0.0, 0.0, 1.2184696791468346e-07, 0.0, 0.0, 0.0, 1.2184696791468346e-07)",-1.20621795,-0.33342609999999884,9.551677100000001,"(8.999999999999999e-08, 0.0, 0.0, 0.0, 8.999999999999999e-08, 0.0, 0.0, 0.0, 8.999999999999999e-08)"
2025/07/05/17:49:58.991183,10544,1751712599,1761008,base_link,0.0,0.0,0.0,0.0,"(-1.0, 0.0, 0.0, 0.0, 0.0, 0.0, 0.0, 0.0, 0.0)",0.394,-0.023999999999999945,0.46,"(1.2184696791468346e-07, 0.0, 0.0, 0.0, 1.2184696791468346e-07, 0.0, 0.0, 0.0, 1.2184696791468346e-07)",-1.1964113,0.4020726500000012,9.73800345,"(8.999999999999999e-08, 0.0, 0.0, 0.0, 8.999999999999999e-08, 0.0, 0.0, 0.0, 8.999999999999999e-08)"
2025/07/05/17:49:59.091160,10545,1751712599,101751008,base_link,0.0,0.0,0.0,0.0,"(-1.0, 0.0, 0.0, 0.0, 0.0, 0.0, 0.0, 0.0, 0.0)",0.083,-0.021999999999999947,0.421,"(1.2184696791468346e-07, 0.0, 0.0, 0.0, 1.2184696791468346e-07, 0.0, 0.0, 0.0, 1.2184696791468346e-07)",-1.2356379,0.7060788000000012,9.7478101,"(8.999999999999999e-08, 0.0, 0.0, 0.0, 8.999999999999999e-08, 0.0, 0.0, 0.0, 8.999999999999999e-08)"
2025/07/05/17:49:59.191341,10546,1751712599,201717008,base_link,0.0,0.0,0.0,0.0,"(-1.0, 0.0, 0.0, 0.0, 0.0, 0.0, 0.0, 0.0, 0.0)",-0.14300000000000002,-0.009999999999999955,0.371,"(1.2184696791468346e-07, 0.0, 0.0, 0.0, 1.2184696791468346e-07, 0.0, 0.0, 0.0, 1.2184696791468346e-07)",-1.2160246,0.7354987500000013,9.77723005,"(8.999999999999999e-08, 0.0, 0.0, 0.0, 8.999999999999999e-08, 0.0, 0.0, 0.0, 8.999999999999999e-08)"
2025/07/05/17:49:59.272788,10547,1751712599,280941008,base_link,0.0,0.0,0.0,0.0,"(-1.0, 0.0, 0.0, 0.0, 0.0, 0.0, 0.0, 0.0, 0.0)",-0.20500000000000002,4.249524393041316e-17,0.34700000000000003,"(1.2184696791468346e-07, 0.0, 0.0, 0.0, 1.2184696791468346e-07, 0.0, 0.0, 0.0, 1.2184696791468346e-07)",-1.24544455,0.5099458000000012,9.7478101,"(8.999999999999999e-08, 0.0, 0.0, 0.0, 8.999999999999999e-08, 0.0, 0.0, 0.0, 8.999999999999999e-08)"
2025/07/05/17:49:59.411903,10548,1751712599,421974008,base_link,0.0,0.0,0.0,0.0,"(-1.0, 0.0, 0.0, 0.0, 0.0, 0.0, 0.0, 0.0, 0.0)",-0.097,0.008000000000000044,0.357,"(1.2184696791468346e-07, 0.0, 0.0, 0.0, 1.2184696791468346e-07, 0.0, 0.0, 0.0, 1.2184696791468346e-07)",-1.2160246,0.4609125500000012,9.6301303,"(8.999999999999999e-08, 0.0, 0.0, 0.0, 8.999999999999999e-08, 0.0, 0.0, 0.0, 8.999999999999999e-08)"
2025/07/05/17:49:59.511634,10549,1751712599,522384008,base_link,0.0,0.0,0.0,0.0,"(-1.0, 0.0, 0.0, 0.0, 0.0, 0.0, 0.0, 0.0, 0.0)",0.056,0.005000000000000044,0.358,"(1.2184696791468346e-07, 0.0, 0.0, 0.0, 1.2184696791468346e-07, 0.0, 0.0, 0.0, 1.2184696791468346e-07)",-1.20621795,1.2160246000000012,9.65955025,"(8.999999999999999e-08, 0.0, 0.0, 0.0, 8.999999999999999e-08, 0.0, 0.0, 0.0, 8.999999999999999e-08)"
2025/07/05/17:49:59.633223,10550,1751712599,643623008,base_link,0.0,0.0,0.0,0.0,"(-1.0, 0.0, 0.0, 0.0, 0.0, 0.0, 0.0, 0.0, 0.0)",0.454,0.017000000000000022,0.17300000000000001,"(1.2184696791468346e-07, 0.0, 0.0, 0.0, 1.2184696791468346e-07, 0.0, 0.0, 0.0, 1.2184696791468346e-07)",-1.4317709,3.0302548500000013,9.77723005,"(8.999999999999999e-08, 0.0, 0.0, 0.0, 8.999999999999999e-08, 0.0, 0.0, 0.0, 8.999999999999999e-08)"
2025/07/05/17:49:59.730024,10551,1751712599,740561008,base_link,0.0,0.0,0.0,0.0,"(-1.0, 0.0, 0.0, 0.0, 0.0, 0.0, 0.0, 0.0, 0.0)",0.729,0.04199999999999999,-0.11,"(1.2184696791468346e-07, 0.0, 0.0, 0.0, 1.2184696791468346e-07, 0.0, 0.0, 0.0, 1.2184696791468346e-07)",-1.569064,2.069203150000001,9.79684335,"(8.999999999999999e-08, 0.0, 0.0, 0.0, 8.999999999999999e-08, 0.0, 0.0, 0.0, 8.999999999999999e-08)"
2025/07/05/17:49:59.811900,10552,1751712599,822757008,base_link,0.0,0.0,0.0,0.0,"(-1.0, 0.0, 0.0, 0.0, 0.0, 0.0, 0.0, 0.0, 0.0)",0.47700000000000004,0.03699999999999997,-0.254,"(1.2184696791468346e-07, 0.0, 0.0, 0.0, 1.2184696791468346e-07, 0.0, 0.0, 0.0, 1.2184696791468346e-07)",-1.38273765,1.461190850000001,9.36535075,"(8.999999999999999e-08, 0.0, 0.0, 0.0, 8.999999999999999e-08, 0.0, 0.0, 0.0, 8.999999999999999e-08)"
2025/07/05/17:49:59.930552,10553,1751712599,940609008,base_link,0.0,0.0,0.0,0.0,"(-1.0, 0.0, 0.0, 0.0, 0.0, 0.0, 0.0, 0.0, 0.0)",-0.225,-0.03200000000000005,-0.389,"(1.2184696791468346e-07, 0.0, 0.0, 0.0, 1.2184696791468346e-07, 0.0, 0.0, 0.0, 1.2184696791468346e-07)",-1.24544455,0.8335652500000011,9.2770909,"(8.999999999999999e-08, 0.0, 0.0, 0.0, 8.999999999999999e-08, 0.0, 0.0, 0.0, 8.999999999999999e-08)"
2025/07/05/17:50:00.049530,10554,1751712600,60647008,base_link,0.0,0.0,0.0,0.0,"(-1.0, 0.0, 0.0, 0.0, 0.0, 0.0, 0.0, 0.0, 0.0)",-0.657,-0.10900000000000006,-0.401,"(1.2184696791468346e-07, 0.0, 0.0, 0.0, 1.2184696791468346e-07, 0.0, 0.0, 0.0, 1.2184696791468346e-07)",-1.1375714000000001,-0.2059396499999988,9.639936950000001,"(8.999999999999999e-08, 0.0, 0.0, 0.0, 8.999999999999999e-08, 0.0, 0.0, 0.0, 8.999999999999999e-08)"
2025/07/05/17:50:00.150793,10555,1751712600,160680008,base_link,0.0,0.0,0.0,0.0,"(-1.0, 0.0, 0.0, 0.0, 0.0, 0.0, 0.0, 0.0, 0.0)",-0.671,-0.10900000000000004,-0.297,"(1.2184696791468346e-07, 0.0, 0.0, 0.0, 1.2184696791468346e-07, 0.0, 0.0, 0.0, 1.2184696791468346e-07)",-1.12776475,-0.7551120499999987,9.8458766,"(8.999999999999999e-08, 0.0, 0.0, 0.0, 8.999999999999999e-08, 0.0, 0.0, 0.0, 8.999999999999999e-08)"
2025/07/05/17:50:00.233462,10556,1751712600,243997008,base_link,0.0,0.0,0.0,0.0,"(-1.0, 0.0, 0.0, 0.0, 0.0, 0.0, 0.0, 0.0, 0.0)",-0.44,-0.06800000000000003,-0.176,"(1.2184696791468346e-07, 0.0, 0.0, 0.0, 1.2184696791468346e-07, 0.0, 0.0, 0.0, 1.2184696791468346e-07)",-1.20621795,-1.7848102999999989,9.8851032,"(8.999999999999999e-08, 0.0, 0.0, 0.0, 8.999999999999999e-08, 0.0, 0.0, 0.0, 8.999999999999999e-08)"
2025/07/05/17:50:00.350885,10557,1751712600,360730008,base_link,0.0,0.0,0.0,0.0,"(-1.0, 0.0, 0.0, 0.0, 0.0, 0.0, 0.0, 0.0, 0.0)",-0.185,0.0030000000000000165,0.133,"(1.2184696791468346e-07, 0.0, 0.0, 0.0, 1.2184696791468346e-07, 0.0, 0.0, 0.0, 1.2184696791468346e-07)",-1.2160246,-1.4808041499999989,9.7478101,"(8.999999999999999e-08, 0.0, 0.0, 0.0, 8.999999999999999e-08, 0.0, 0.0, 0.0, 8.999999999999999e-08)"
2025/07/05/17:50:00.530151,10558,1751712600,540559008,base_link,0.0,0.0,0.0,0.0,"(-1.0, 0.0, 0.0, 0.0, 0.0, 0.0, 0.0, 0.0, 0.0)",0.296,0.01800000000000005,0.396,"(1.2184696791468346e-07, 0.0, 0.0, 0.0, 1.2184696791468346e-07, 0.0, 0.0, 0.0, 1.2184696791468346e-07)",-1.20621795,-0.45110589999999884,9.54187045,"(8.999999999999999e-08, 0.0, 0.0, 0.0, 8.999999999999999e-08, 0.0, 0.0, 0.0, 8.999999999999999e-08)"
2025/07/05/17:50:00.591681,10559,1751712600,602499008,base_link,0.0,0.0,0.0,0.0,"(-1.0, 0.0, 0.0, 0.0, 0.0, 0.0, 0.0, 0.0, 0.0)",0.352,-0.0019999999999999476,0.429,"(1.2184696791468346e-07, 0.0, 0.0, 0.0, 1.2184696791468346e-07, 0.0, 0.0, 0.0, 1.2184696791468346e-07)",-1.2552512,-0.05883989999999883,9.610517,"(8.999999999999999e-08, 0.0, 0.0, 0.0, 8.999999999999999e-08, 0.0, 0.0, 0.0, 8.999999999999999e-08)"
2025/07/05/17:50:00.691175,10560,1751712600,701975008,base_link,0.0,0.0,0.0,0.0,"(-1.0, 0.0, 0.0, 0.0, 0.0, 0.0, 0.0, 0.0, 0.0)",0.305,-0.03499999999999995,0.436,"(1.2184696791468346e-07, 0.0, 0.0, 0.0, 1.2184696791468346e-07, 0.0, 0.0, 0.0, 1.2184696791468346e-07)",-1.1375714000000001,0.7551120500000013,9.71839015,"(8.999999999999999e-08, 0.0, 0.0, 0.0, 8.999999999999999e-08, 0.0, 0.0, 0.0, 8.999999999999999e-08)"
2025/07/05/17:50:00.791878,10561,1751712600,801949008,base_link,0.0,0.0,0.0,0.0,"(-1.0, 0.0, 0.0, 0.0, 0.0, 0.0, 0.0, 0.0, 0.0)",0.25,-0.03299999999999996,0.328,"(1.2184696791468346e-07, 0.0, 0.0, 0.0, 1.2184696791468346e-07, 0.0, 0.0, 0.0, 1.2184696791468346e-07)",-1.24544455,1.5200307500000012,9.77723005,"(8.999999999999999e-08, 0.0, 0.0, 0.0, 8.999999999999999e-08, 0.0, 0.0, 0.0, 8.999999999999999e-08)"
2025/07/05/17:50:00.851740,10562,1751712600,861161008,base_link,0.0,0.0,0.0,0.0,"(-1.0, 0.0, 0.0, 0.0, 0.0, 0.0, 0.0, 0.0, 0.0)",0.313,-0.010999999999999975,0.194,"(1.2184696791468346e-07, 0.0, 0.0, 0.0, 1.2184696791468346e-07, 0.0, 0.0, 0.0, 1.2184696791468346e-07)",-1.4513842000000001,3.147934650000001,9.81645665,"(8.999999999999999e-08, 0.0, 0.0, 0.0, 8.999999999999999e-08, 0.0, 0.0, 0.0, 8.999999999999999e-08)"
2025/07/05/17:50:00.970593,10563,1751712600,980915008,base_link,0.0,0.0,0.0,0.0,"(-1.0, 0.0, 0.0, 0.0, 0.0, 0.0, 0.0, 0.0, 0.0)",0.394,0.038999999999999986,-0.10200000000000001,"(1.2184696791468346e-07, 0.0, 0.0, 0.0, 1.2184696791468346e-07, 0.0, 0.0, 0.0, 1.2184696791468346e-07)",-1.44157755,1.8436502000000012,9.54187045,"(8.999999999999999e-08, 0.0, 0.0, 0.0, 8.999999999999999e-08, 0.0, 0.0, 0.0, 8.999999999999999e-08)"
